"trial_type","trial_index","time_elapsed","internal_node_id","width","height","webaudio","browser","browser_version","mobile","os","fullscreen","vsync_rate","webcam","microphone","success","timeout","failed_images","failed_audio","failed_video","rt","stimulus","response","calibrationAccuracy","currGazeTime","singleCrossData","totalGazeTime","screenX","screenY","gazerDatasingleDotDuration","stimBot","stimTop","stimLeft","stimRight","webgazerError","stimLocation","trialLength","gazerDatadoubleImageGaze","stimLeftGaze","stimRightGaze","leftStimDims","rightStimDims","currGazeObject","gazerDatadoubleImageKey","stimulusOne","stimulusTwo","stimuliAreas","keyResp","gazerDatadoubleImageDuration","stimulusLeft","stimulusRight","LstimBot","LstimLeft","LstimRight","LstimTop","RstimBot","RstimLeft","RstimRight","RstimTop","gazerDatasingleImageKey","keyStimBot","keyStimTop","keyStimLeft","keyStimRight","upright","singleImageKeyWebgazerError","gazerDatasingleImageDuration","durationStimBot","durationStimTop","durationStimLeft","durationStimRight","singleImageDurationStimulus","singleImageDurationUpright","singleImageDurationWebgazerError"
"pavlovia","0","3048","0.0-0.0","","","","","","","","","","","","","","","","","","","","","","","","","","","","","","","","","","","","","","","","","","","","","","","","","","","","","","","","","","","","","","","","","","","","","",""
"browser-check","1","4064","0.0-1.0","1440","718","true","chrome","114.0.0","false","Mac OS","true","60.14","true","true","","","","","","","","","","","","","","","","","","","","","","","","","","","","","","","","","","","","","","","","","","","","","","","","","","","","","","","","","","",""
"preload","2","4070","0.0-2.0","","","","","","","","","","","","true","false","[]","[]","[]","","","","","","","","","","","","","","","","","","","","","","","","","","","","","","","","","","","","","","","","","","","","","","","","","","","","","",""
"html-keyboard-response","3","4820","0.0-3.0","","","","","","","","","","","","","","","","","749","<p>Welcome to the Gazer demo experiment.</p>
    <p>The purpose of this demo is to provide working examples for all the available Gazer plugins for jsPsych.</p>
    <p>For documentation of this system, please visit <a href='https://amyvanwell.github.io/gazerCode/'>amyvanwell.github.io/gazerCode/</a>.</p> 
    <p>Press any key to proceed to the first part of the demonstration, the Gazer calibration.</p>"," ","","","","","","","","","","","","","","","","","","","","","","","","","","","","","","","","","","","","","","","","","","","","","","","","","","",""
"calibrate-quadrants-simple","4","30436","0.0-4.0","","","","","","","","","","","","","","","","","","","","79","","","","","","","","","","","","","","","","","","","","","","","","","","","","","","","","","","","","","","","","","","","","","","","","","",""
"html-keyboard-response","5","31694","0.0-5.0","","","","","","","","","","","","","","","","","1257","<p>Thank you for calibrating, you will now proceed to the trials.</p><p> There are a total of 5 blocks of trials, each of a different type. <br>The first will be a block of 8 SINGLE-DOT-DURATION trials.</p><p>Your task is to fixate on the center cross, and then gaze at the red dot when it appears until the end of the trial.</p><p>In each trial, we will wait to present the red dot until we record your gaze has been on the center cross for 250ms consecutively.</p><p> Press [space] to continue to proceed to the first trial.</p>"," ","","","","","","","","","","","","","","","","","","","","","","","","","","","","","","","","","","","","","","","","","","","","","","","","","","",""
"Single-Cross-Gaze","6","32260","0.0-6.0-0.0","","","","","","","","","","","","","","","","","","","","","266","[{""startTime"":1689888495048,""x"":838,""y"":431,""analysisTime"":37},{""startTime"":1689888495097,""x"":904,""y"":328,""analysisTime"":26},{""startTime"":1689888495135,""x"":873,""y"":323,""analysisTime"":34},{""startTime"":1689888495180,""x"":831,""y"":340,""analysisTime"":38},{""startTime"":1689888495228,""x"":1001,""y"":348,""analysisTime"":39},{""startTime"":1689888495278,""x"":1001,""y"":348,""analysisTime"":25},{""startTime"":1689888495314,""x"":857,""y"":417,""analysisTime"":34},{""startTime"":1689888495358,""x"":734,""y"":355,""analysisTime"":39},{""startTime"":1689888495408,""x"":682,""y"":327,""analysisTime"":37},{""startTime"":1689888495457,""x"":771,""y"":373,""analysisTime"":30},{""startTime"":1689888495497,""x"":699,""y"":380,""analysisTime"":26},{""startTime"":1689888495535,""x"":715,""y"":372,""analysisTime"":21},{""startTime"":1689888495575,""x"":778,""y"":375,""analysisTime"":39}]","566","","","","","","","","","","","","","","","","","","","","","","","","","","","","","","","","","","","","","","","","","","","","","","",""
"Single-Dot-Duration","7","33841","0.0-6.0-1.0","","","","","","","","","","","","","","","","","","","","","","","","1440","718","[{""startTime"":0,""x"":778,""y"":375,""analysisTime"":21},{""startTime"":32,""x"":765,""y"":399,""analysisTime"":34},{""startTime"":76,""x"":722,""y"":385,""analysisTime"":39},{""startTime"":126,""x"":755,""y"":423,""analysisTime"":38},{""startTime"":174,""x"":731,""y"":438,""analysisTime"":39},{""startTime"":225,""x"":726,""y"":425,""analysisTime"":37},{""startTime"":272,""x"":782,""y"":335,""analysisTime"":38},{""startTime"":321,""x"":780,""y"":423,""analysisTime"":39},{""startTime"":370,""x"":846,""y"":416,""analysisTime"":26},{""startTime"":410,""x"":889,""y"":456,""analysisTime"":39},{""startTime"":459,""x"":823,""y"":427,""analysisTime"":39},{""startTime"":508,""x"":721,""y"":404,""analysisTime"":39},{""startTime"":557,""x"":690,""y"":392,""analysisTime"":40},{""startTime"":607,""x"":794,""y"":455,""analysisTime"":39},{""startTime"":657,""x"":828,""y"":461,""analysisTime"":38},{""startTime"":705,""x"":683,""y"":424,""analysisTime"":38},{""startTime"":754,""x"":735,""y"":432,""analysisTime"":38},{""startTime"":803,""x"":778,""y"":596,""analysisTime"":37},{""startTime"":851,""x"":658,""y"":622,""analysisTime"":26},{""startTime"":893,""x"":614,""y"":680,""analysisTime"":39},{""startTime"":942,""x"":679,""y"":667,""analysisTime"":39},{""startTime"":993,""x"":704,""y"":696,""analysisTime"":37},{""startTime"":1040,""x"":631,""y"":655,""analysisTime"":39},{""startTime"":1090,""x"":668,""y"":638,""analysisTime"":37},{""startTime"":1138,""x"":682,""y"":658,""analysisTime"":38},{""startTime"":1187,""x"":610,""y"":666,""analysisTime"":27},{""startTime"":1226,""x"":712,""y"":687,""analysisTime"":39},{""startTime"":1275,""x"":674,""y"":701,""analysisTime"":42},{""startTime"":1352,""x"":699,""y"":673,""analysisTime"":32},{""startTime"":1394,""x"":578,""y"":648,""analysisTime"":41},{""startTime"":1446,""x"":704,""y"":668,""analysisTime"":38},{""startTime"":1494,""x"":707,""y"":685,""analysisTime"":38},{""startTime"":1543,""x"":671,""y"":662,""analysisTime"":38}]","686.796875","636.796875","695","745","false","6","","","","","","","","","","","","","","","","","","","","","","","","","","","","","","","","","","","","","",""
"Single-Cross-Gaze","8","34421","0.0-6.0-0.1","","","","","","","","","","","","","","","","","","","","","278","[{""startTime"":1689888497196,""x"":671,""y"":662,""analysisTime"":20},{""startTime"":1689888497227,""x"":693,""y"":668,""analysisTime"":34},{""startTime"":1689888497272,""x"":641,""y"":662,""analysisTime"":39},{""startTime"":1689888497321,""x"":554,""y"":673,""analysisTime"":38},{""startTime"":1689888497370,""x"":580,""y"":614,""analysisTime"":37},{""startTime"":1689888497417,""x"":788,""y"":626,""analysisTime"":26},{""startTime"":1689888497459,""x"":911,""y"":407,""analysisTime"":38},{""startTime"":1689888497508,""x"":689,""y"":475,""analysisTime"":38},{""startTime"":1689888497556,""x"":654,""y"":392,""analysisTime"":38},{""startTime"":1689888497604,""x"":700,""y"":384,""analysisTime"":38},{""startTime"":1689888497652,""x"":752,""y"":423,""analysisTime"":38},{""startTime"":1689888497701,""x"":735,""y"":427,""analysisTime"":38},{""startTime"":1689888497749,""x"":750,""y"":427,""analysisTime"":26}]","579","","","","","","","","","","","","","","","","","","","","","","","","","","","","","","","","","","","","","","","","","","","","","","",""
"Single-Dot-Duration","9","36008","0.0-6.0-1.1","","","","","","","","","","","","","","","","","","","","","","","","1440","718","[{""startTime"":0,""x"":849,""y"":485,""analysisTime"":30},{""startTime"":40,""x"":775,""y"":421,""analysisTime"":26},{""startTime"":83,""x"":885,""y"":468,""analysisTime"":38},{""startTime"":132,""x"":897,""y"":445,""analysisTime"":38},{""startTime"":180,""x"":806,""y"":382,""analysisTime"":39},{""startTime"":229,""x"":813,""y"":451,""analysisTime"":39},{""startTime"":278,""x"":770,""y"":376,""analysisTime"":38},{""startTime"":327,""x"":756,""y"":377,""analysisTime"":37},{""startTime"":375,""x"":906,""y"":385,""analysisTime"":39},{""startTime"":424,""x"":748,""y"":369,""analysisTime"":25},{""startTime"":461,""x"":841,""y"":461,""analysisTime"":21},{""startTime"":497,""x"":829,""y"":456,""analysisTime"":40},{""startTime"":548,""x"":787,""y"":458,""analysisTime"":39},{""startTime"":597,""x"":761,""y"":378,""analysisTime"":38},{""startTime"":645,""x"":819,""y"":426,""analysisTime"":38},{""startTime"":693,""x"":780,""y"":383,""analysisTime"":38},{""startTime"":742,""x"":920,""y"":402,""analysisTime"":26},{""startTime"":779,""x"":686,""y"":226,""analysisTime"":40},{""startTime"":830,""x"":852,""y"":284,""analysisTime"":37},{""startTime"":877,""x"":870,""y"":161,""analysisTime"":38},{""startTime"":927,""x"":870,""y"":161,""analysisTime"":24},{""startTime"":965,""x"":844,""y"":132,""analysisTime"":39},{""startTime"":1014,""x"":1034,""y"":205,""analysisTime"":39},{""startTime"":1063,""x"":1044,""y"":173,""analysisTime"":39},{""startTime"":1112,""x"":987,""y"":115,""analysisTime"":26},{""startTime"":1149,""x"":1019,""y"":97,""analysisTime"":35},{""startTime"":1194,""x"":1008,""y"":116,""analysisTime"":57},{""startTime"":1262,""x"":1004,""y"":156,""analysisTime"":43},{""startTime"":1316,""x"":936,""y"":162,""analysisTime"":31},{""startTime"":1358,""x"":959,""y"":137,""analysisTime"":26},{""startTime"":1399,""x"":919,""y"":52,""analysisTime"":39},{""startTime"":1449,""x"":984,""y"":131,""analysisTime"":39},{""startTime"":1499,""x"":873,""y"":16,""analysisTime"":38},{""startTime"":1547,""x"":1013,""y"":121,""analysisTime"":38}]","184.203125","134.203125","695","745","false","2","","","","","","","","","","","","","","","","","","","","","","","","","","","","","","","","","","","","","",""
"Single-Cross-Gaze","10","36583","0.0-6.0-0.2","","","","","","","","","","","","","","","","","","","","","274","[{""startTime"":1689888499362,""x"":1143,""y"":187,""analysisTime"":20},{""startTime"":1689888499394,""x"":968,""y"":70,""analysisTime"":34},{""startTime"":1689888499440,""x"":899,""y"":-7,""analysisTime"":35},{""startTime"":1689888499486,""x"":934,""y"":99,""analysisTime"":38},{""startTime"":1689888499534,""x"":926,""y"":102,""analysisTime"":39},{""startTime"":1689888499583,""x"":820,""y"":117,""analysisTime"":26},{""startTime"":1689888499625,""x"":771,""y"":227,""analysisTime"":38},{""startTime"":1689888499673,""x"":756,""y"":305,""analysisTime"":38},{""startTime"":1689888499722,""x"":800,""y"":317,""analysisTime"":38},{""startTime"":1689888499771,""x"":783,""y"":322,""analysisTime"":38},{""startTime"":1689888499819,""x"":854,""y"":299,""analysisTime"":27},{""startTime"":1689888499857,""x"":815,""y"":319,""analysisTime"":39},{""startTime"":1689888499907,""x"":748,""y"":308,""analysisTime"":30}]","575","","","","","","","","","","","","","","","","","","","","","","","","","","","","","","","","","","","","","","","","","","","","","","",""
"Single-Dot-Duration","11","38121","0.0-6.0-1.2","","","","","","","","","","","","","","","","","","","","","","","","1440","718","[{""startTime"":0,""x"":785,""y"":362,""analysisTime"":32},{""startTime"":43,""x"":745,""y"":394,""analysisTime"":25},{""startTime"":81,""x"":798,""y"":380,""analysisTime"":30},{""startTime"":121,""x"":730,""y"":381,""analysisTime"":41},{""startTime"":172,""x"":770,""y"":265,""analysisTime"":38},{""startTime"":221,""x"":860,""y"":307,""analysisTime"":38},{""startTime"":270,""x"":786,""y"":304,""analysisTime"":38},{""startTime"":318,""x"":823,""y"":330,""analysisTime"":38},{""startTime"":366,""x"":764,""y"":312,""analysisTime"":39},{""startTime"":416,""x"":812,""y"":324,""analysisTime"":39},{""startTime"":466,""x"":758,""y"":280,""analysisTime"":37},{""startTime"":514,""x"":740,""y"":272,""analysisTime"":27},{""startTime"":555,""x"":889,""y"":353,""analysisTime"":38},{""startTime"":603,""x"":704,""y"":298,""analysisTime"":37},{""startTime"":651,""x"":811,""y"":333,""analysisTime"":38},{""startTime"":700,""x"":776,""y"":326,""analysisTime"":40},{""startTime"":751,""x"":420,""y"":460,""analysisTime"":38},{""startTime"":799,""x"":251,""y"":636,""analysisTime"":39},{""startTime"":848,""x"":102,""y"":635,""analysisTime"":39},{""startTime"":897,""x"":133,""y"":550,""analysisTime"":26},{""startTime"":937,""x"":171,""y"":684,""analysisTime"":39},{""startTime"":986,""x"":265,""y"":673,""analysisTime"":39},{""startTime"":1035,""x"":385,""y"":592,""analysisTime"":25},{""startTime"":1071,""x"":313,""y"":593,""analysisTime"":36},{""startTime"":1142,""x"":282,""y"":629,""analysisTime"":30},{""startTime"":1183,""x"":317,""y"":617,""analysisTime"":38},{""startTime"":1231,""x"":317,""y"":617,""analysisTime"":25},{""startTime"":1269,""x"":314,""y"":684,""analysisTime"":39},{""startTime"":1318,""x"":225,""y"":691,""analysisTime"":38},{""startTime"":1367,""x"":208,""y"":693,""analysisTime"":38},{""startTime"":1415,""x"":158,""y"":725,""analysisTime"":38},{""startTime"":1463,""x"":204,""y"":685,""analysisTime"":38},{""startTime"":1511,""x"":258,""y"":671,""analysisTime"":26}]","686.796875","636.796875","191","241","false","7","","","","","","","","","","","","","","","","","","","","","","","","","","","","","","","","","","","","","",""
"Single-Cross-Gaze","12","38754","0.0-6.0-0.3","","","","","","","","","","","","","","","","","","","","","284","[{""startTime"":1689888501475,""x"":201,""y"":694,""analysisTime"":30},{""startTime"":1689888501516,""x"":255,""y"":679,""analysisTime"":26},{""startTime"":1689888501558,""x"":226,""y"":703,""analysisTime"":39},{""startTime"":1689888501607,""x"":230,""y"":702,""analysisTime"":39},{""startTime"":1689888501657,""x"":199,""y"":700,""analysisTime"":25},{""startTime"":1689888501693,""x"":305,""y"":688,""analysisTime"":34},{""startTime"":1689888501737,""x"":875,""y"":600,""analysisTime"":38},{""startTime"":1689888501786,""x"":863,""y"":440,""analysisTime"":38},{""startTime"":1689888501834,""x"":720,""y"":495,""analysisTime"":26},{""startTime"":1689888501874,""x"":797,""y"":400,""analysisTime"":39},{""startTime"":1689888501923,""x"":857,""y"":356,""analysisTime"":39},{""startTime"":1689888501972,""x"":823,""y"":385,""analysisTime"":38},{""startTime"":1689888502021,""x"":687,""y"":345,""analysisTime"":38},{""startTime"":1689888502069,""x"":738,""y"":361,""analysisTime"":39}]","633","","","","","","","","","","","","","","","","","","","","","","","","","","","","","","","","","","","","","","","","","","","","","","",""
"Single-Dot-Duration","13","40326","0.0-6.0-1.3","","","","","","","","","","","","","","","","","","","","","","","","1440","718","[{""startTime"":0,""x"":755,""y"":338,""analysisTime"":33},{""startTime"":44,""x"":789,""y"":389,""analysisTime"":25},{""startTime"":81,""x"":803,""y"":377,""analysisTime"":39},{""startTime"":131,""x"":855,""y"":383,""analysisTime"":37},{""startTime"":178,""x"":829,""y"":382,""analysisTime"":39},{""startTime"":228,""x"":863,""y"":397,""analysisTime"":25},{""startTime"":266,""x"":874,""y"":395,""analysisTime"":42},{""startTime"":318,""x"":699,""y"":350,""analysisTime"":26},{""startTime"":355,""x"":746,""y"":373,""analysisTime"":35},{""startTime"":401,""x"":806,""y"":387,""analysisTime"":37},{""startTime"":448,""x"":791,""y"":417,""analysisTime"":39},{""startTime"":498,""x"":804,""y"":421,""analysisTime"":38},{""startTime"":546,""x"":828,""y"":407,""analysisTime"":39},{""startTime"":597,""x"":889,""y"":443,""analysisTime"":39},{""startTime"":648,""x"":730,""y"":411,""analysisTime"":31},{""startTime"":689,""x"":801,""y"":411,""analysisTime"":26},{""startTime"":734,""x"":754,""y"":378,""analysisTime"":41},{""startTime"":786,""x"":823,""y"":353,""analysisTime"":25},{""startTime"":824,""x"":914,""y"":467,""analysisTime"":31},{""startTime"":865,""x"":1008,""y"":490,""analysisTime"":39},{""startTime"":914,""x"":1020,""y"":514,""analysisTime"":39},{""startTime"":964,""x"":1020,""y"":514,""analysisTime"":28},{""startTime"":1008,""x"":1076,""y"":507,""analysisTime"":45},{""startTime"":1063,""x"":1040,""y"":497,""analysisTime"":23},{""startTime"":1099,""x"":1039,""y"":609,""analysisTime"":41},{""startTime"":1150,""x"":1067,""y"":540,""analysisTime"":39},{""startTime"":1199,""x"":1100,""y"":565,""analysisTime"":38},{""startTime"":1247,""x"":1107,""y"":620,""analysisTime"":39},{""startTime"":1297,""x"":1129,""y"":629,""analysisTime"":37},{""startTime"":1345,""x"":1062,""y"":648,""analysisTime"":38},{""startTime"":1394,""x"":1093,""y"":619,""analysisTime"":37},{""startTime"":1441,""x"":1164,""y"":617,""analysisTime"":27},{""startTime"":1484,""x"":1091,""y"":604,""analysisTime"":39},{""startTime"":1534,""x"":1120,""y"":614,""analysisTime"":38}]","686.796875","636.796875","1199","1249","false","5","","","","","","","","","","","","","","","","","","","","","","","","","","","","","","","","","","","","","",""
"Single-Cross-Gaze","14","40942","0.0-6.0-0.4","","","","","","","","","","","","","","","","","","","","","270","[{""startTime"":1689888503680,""x"":1120,""y"":614,""analysisTime"":19},{""startTime"":1689888503710,""x"":1186,""y"":630,""analysisTime"":36},{""startTime"":1689888503756,""x"":1109,""y"":578,""analysisTime"":38},{""startTime"":1689888503804,""x"":1003,""y"":638,""analysisTime"":39},{""startTime"":1689888503853,""x"":1035,""y"":595,""analysisTime"":39},{""startTime"":1689888503903,""x"":1035,""y"":595,""analysisTime"":25},{""startTime"":1689888503939,""x"":934,""y"":645,""analysisTime"":38},{""startTime"":1689888503988,""x"":705,""y"":428,""analysisTime"":38},{""startTime"":1689888504037,""x"":704,""y"":492,""analysisTime"":38},{""startTime"":1689888504085,""x"":757,""y"":393,""analysisTime"":26},{""startTime"":1689888504123,""x"":737,""y"":493,""analysisTime"":33},{""startTime"":1689888504166,""x"":788,""y"":414,""analysisTime"":26},{""startTime"":1689888504208,""x"":738,""y"":434,""analysisTime"":39},{""startTime"":1689888504257,""x"":798,""y"":352,""analysisTime"":39}]","616","","","","","","","","","","","","","","","","","","","","","","","","","","","","","","","","","","","","","","","","","","","","","","",""
"Single-Dot-Duration","15","42523","0.0-6.0-1.4","","","","","","","","","","","","","","","","","","","","","","","","1440","718","[{""startTime"":0,""x"":851,""y"":314,""analysisTime"":20},{""startTime"":31,""x"":770,""y"":359,""analysisTime"":35},{""startTime"":76,""x"":791,""y"":342,""analysisTime"":38},{""startTime"":124,""x"":804,""y"":362,""analysisTime"":27},{""startTime"":162,""x"":812,""y"":331,""analysisTime"":34},{""startTime"":206,""x"":818,""y"":358,""analysisTime"":38},{""startTime"":254,""x"":846,""y"":337,""analysisTime"":26},{""startTime"":291,""x"":780,""y"":333,""analysisTime"":21},{""startTime"":329,""x"":735,""y"":359,""analysisTime"":39},{""startTime"":378,""x"":858,""y"":382,""analysisTime"":39},{""startTime"":429,""x"":863,""y"":363,""analysisTime"":31},{""startTime"":470,""x"":806,""y"":330,""analysisTime"":27},{""startTime"":511,""x"":918,""y"":396,""analysisTime"":39},{""startTime"":561,""x"":763,""y"":403,""analysisTime"":40},{""startTime"":612,""x"":763,""y"":403,""analysisTime"":25},{""startTime"":649,""x"":815,""y"":394,""analysisTime"":34},{""startTime"":695,""x"":858,""y"":371,""analysisTime"":30},{""startTime"":735,""x"":774,""y"":424,""analysisTime"":26},{""startTime"":772,""x"":780,""y"":488,""analysisTime"":22},{""startTime"":813,""x"":951,""y"":301,""analysisTime"":39},{""startTime"":863,""x"":1043,""y"":149,""analysisTime"":39},{""startTime"":913,""x"":1172,""y"":218,""analysisTime"":38},{""startTime"":971,""x"":1045,""y"":186,""analysisTime"":50},{""startTime"":1032,""x"":1072,""y"":172,""analysisTime"":23},{""startTime"":1067,""x"":1036,""y"":188,""analysisTime"":21},{""startTime"":1099,""x"":1158,""y"":161,""analysisTime"":35},{""startTime"":1145,""x"":1259,""y"":196,""analysisTime"":38},{""startTime"":1193,""x"":985,""y"":268,""analysisTime"":25},{""startTime"":1229,""x"":1036,""y"":535,""analysisTime"":34},{""startTime"":1274,""x"":1021,""y"":588,""analysisTime"":25},{""startTime"":1310,""x"":933,""y"":379,""analysisTime"":21},{""startTime"":1345,""x"":1042,""y"":250,""analysisTime"":39},{""startTime"":1395,""x"":1175,""y"":372,""analysisTime"":40},{""startTime"":1446,""x"":1190,""y"":296,""analysisTime"":38},{""startTime"":1494,""x"":1076,""y"":231,""analysisTime"":39},{""startTime"":1543,""x"":987,""y"":273,""analysisTime"":38}]","184.203125","134.203125","1199","1249","false","3","","","","","","","","","","","","","","","","","","","","","","","","","","","","","","","","","","","","","",""
"Single-Cross-Gaze","16","43406","0.0-6.0-0.5","","","","","","","","","","","","","","","","","","","","","284","[{""startTime"":1689888505877,""x"":987,""y"":273,""analysisTime"":20},{""startTime"":1689888505909,""x"":945,""y"":269,""analysisTime"":37},{""startTime"":1689888505956,""x"":1084,""y"":227,""analysisTime"":39},{""startTime"":1689888506005,""x"":1111,""y"":260,""analysisTime"":39},{""startTime"":1689888506054,""x"":1005,""y"":243,""analysisTime"":38},{""startTime"":1689888506104,""x"":996,""y"":257,""analysisTime"":36},{""startTime"":1689888506151,""x"":587,""y"":555,""analysisTime"":38},{""startTime"":1689888506199,""x"":852,""y"":702,""analysisTime"":26},{""startTime"":1689888506241,""x"":618,""y"":743,""analysisTime"":39},{""startTime"":1689888506291,""x"":734,""y"":556,""analysisTime"":39},{""startTime"":1689888506340,""x"":824,""y"":514,""analysisTime"":38},{""startTime"":1689888506389,""x"":582,""y"":586,""analysisTime"":38},{""startTime"":1689888506438,""x"":771,""y"":533,""analysisTime"":38},{""startTime"":1689888506486,""x"":781,""y"":448,""analysisTime"":39},{""startTime"":1689888506535,""x"":781,""y"":448,""analysisTime"":25},{""startTime"":1689888506574,""x"":819,""y"":481,""analysisTime"":40},{""startTime"":1689888506624,""x"":745,""y"":451,""analysisTime"":39},{""startTime"":1689888506674,""x"":766,""y"":480,""analysisTime"":37},{""startTime"":1689888506722,""x"":843,""y"":505,""analysisTime"":38}]","883","","","","","","","","","","","","","","","","","","","","","","","","","","","","","","","","","","","","","","","","","","","","","","",""
"Single-Dot-Duration","17","44990","0.0-6.0-1.5","","","","","","","","","","","","","","","","","","","","","","","","1440","718","[{""startTime"":0,""x"":929,""y"":517,""analysisTime"":20},{""startTime"":31,""x"":708,""y"":516,""analysisTime"":39},{""startTime"":81,""x"":778,""y"":483,""analysisTime"":38},{""startTime"":129,""x"":776,""y"":512,""analysisTime"":38},{""startTime"":179,""x"":865,""y"":495,""analysisTime"":38},{""startTime"":227,""x"":873,""y"":477,""analysisTime"":39},{""startTime"":277,""x"":873,""y"":477,""analysisTime"":24},{""startTime"":312,""x"":852,""y"":513,""analysisTime"":22},{""startTime"":347,""x"":834,""y"":529,""analysisTime"":39},{""startTime"":397,""x"":852,""y"":526,""analysisTime"":39},{""startTime"":447,""x"":864,""y"":504,""analysisTime"":37},{""startTime"":494,""x"":877,""y"":501,""analysisTime"":38},{""startTime"":543,""x"":841,""y"":506,""analysisTime"":38},{""startTime"":601,""x"":840,""y"":537,""analysisTime"":50},{""startTime"":662,""x"":885,""y"":520,""analysisTime"":23},{""startTime"":698,""x"":890,""y"":523,""analysisTime"":41},{""startTime"":749,""x"":817,""y"":503,""analysisTime"":28},{""startTime"":788,""x"":502,""y"":470,""analysisTime"":22},{""startTime"":822,""x"":322,""y"":354,""analysisTime"":35},{""startTime"":867,""x"":190,""y"":76,""analysisTime"":38},{""startTime"":915,""x"":329,""y"":284,""analysisTime"":39},{""startTime"":964,""x"":193,""y"":264,""analysisTime"":39},{""startTime"":1013,""x"":-3,""y"":189,""analysisTime"":38},{""startTime"":1062,""x"":-182,""y"":146,""analysisTime"":38},{""startTime"":1110,""x"":-46,""y"":177,""analysisTime"":38},{""startTime"":1159,""x"":-238,""y"":161,""analysisTime"":38},{""startTime"":1207,""x"":-144,""y"":205,""analysisTime"":26},{""startTime"":1247,""x"":-247,""y"":84,""analysisTime"":40},{""startTime"":1297,""x"":-26,""y"":191,""analysisTime"":39},{""startTime"":1348,""x"":-236,""y"":110,""analysisTime"":40},{""startTime"":1398,""x"":-212,""y"":121,""analysisTime"":39},{""startTime"":1447,""x"":-148,""y"":84,""analysisTime"":39},{""startTime"":1496,""x"":-304,""y"":47,""analysisTime"":38},{""startTime"":1544,""x"":-335,""y"":-6,""analysisTime"":40}]","184.203125","134.203125","191","241","false","1","","","","","","","","","","","","","","","","","","","","","","","","","","","","","","","","","","","","","",""
"Single-Cross-Gaze","18","45558","0.0-6.0-0.6","","","","","","","","","","","","","","","","","","","","","286","[{""startTime"":1689888508344,""x"":-335,""y"":-6,""analysisTime"":20},{""startTime"":1689888508375,""x"":-277,""y"":-21,""analysisTime"":37},{""startTime"":1689888508422,""x"":-279,""y"":-28,""analysisTime"":38},{""startTime"":1689888508471,""x"":-279,""y"":-28,""analysisTime"":25},{""startTime"":1689888508507,""x"":75,""y"":83,""analysisTime"":25},{""startTime"":1689888508543,""x"":-333,""y"":-40,""analysisTime"":35},{""startTime"":1689888508588,""x"":578,""y"":304,""analysisTime"":38},{""startTime"":1689888508636,""x"":543,""y"":518,""analysisTime"":39},{""startTime"":1689888508685,""x"":726,""y"":414,""analysisTime"":38},{""startTime"":1689888508734,""x"":736,""y"":459,""analysisTime"":26},{""startTime"":1689888508775,""x"":684,""y"":396,""analysisTime"":38},{""startTime"":1689888508823,""x"":751,""y"":352,""analysisTime"":40},{""startTime"":1689888508875,""x"":767,""y"":388,""analysisTime"":37}]","568","","","","","","","","","","","","","","","","","","","","","","","","","","","","","","","","","","","","","","","","","","","","","","",""
"Single-Dot-Duration","19","47122","0.0-6.0-1.6","","","","","","","","","","","","","","","","","","","","","","","","1440","718","[{""startTime"":0,""x"":767,""y"":388,""analysisTime"":20},{""startTime"":31,""x"":854,""y"":372,""analysisTime"":36},{""startTime"":77,""x"":865,""y"":332,""analysisTime"":38},{""startTime"":127,""x"":828,""y"":317,""analysisTime"":37},{""startTime"":174,""x"":822,""y"":319,""analysisTime"":26},{""startTime"":212,""x"":835,""y"":306,""analysisTime"":39},{""startTime"":261,""x"":887,""y"":268,""analysisTime"":38},{""startTime"":309,""x"":865,""y"":259,""analysisTime"":39},{""startTime"":359,""x"":839,""y"":241,""analysisTime"":37},{""startTime"":407,""x"":730,""y"":213,""analysisTime"":38},{""startTime"":457,""x"":817,""y"":281,""analysisTime"":24},{""startTime"":501,""x"":717,""y"":288,""analysisTime"":49},{""startTime"":562,""x"":794,""y"":315,""analysisTime"":36},{""startTime"":608,""x"":827,""y"":326,""analysisTime"":41},{""startTime"":660,""x"":809,""y"":388,""analysisTime"":38},{""startTime"":708,""x"":542,""y"":584,""analysisTime"":39},{""startTime"":757,""x"":766,""y"":627,""analysisTime"":25},{""startTime"":796,""x"":1117,""y"":414,""analysisTime"":39},{""startTime"":845,""x"":1086,""y"":227,""analysisTime"":38},{""startTime"":896,""x"":1185,""y"":236,""analysisTime"":30},{""startTime"":936,""x"":1119,""y"":221,""analysisTime"":27},{""startTime"":980,""x"":1166,""y"":180,""analysisTime"":38},{""startTime"":1029,""x"":1123,""y"":69,""analysisTime"":38},{""startTime"":1077,""x"":1209,""y"":100,""analysisTime"":26},{""startTime"":1114,""x"":1123,""y"":109,""analysisTime"":34},{""startTime"":1158,""x"":1006,""y"":95,""analysisTime"":39},{""startTime"":1207,""x"":1063,""y"":123,""analysisTime"":39},{""startTime"":1257,""x"":1063,""y"":123,""analysisTime"":25},{""startTime"":1294,""x"":1156,""y"":107,""analysisTime"":20},{""startTime"":1329,""x"":1122,""y"":50,""analysisTime"":38},{""startTime"":1378,""x"":1178,""y"":53,""analysisTime"":39},{""startTime"":1428,""x"":1073,""y"":57,""analysisTime"":38},{""startTime"":1476,""x"":1115,""y"":57,""analysisTime"":39},{""startTime"":1526,""x"":1152,""y"":95,""analysisTime"":38}]","184.203125","134.203125","1199","1249","false","3","","","","","","","","","","","","","","","","","","","","","","","","","","","","","","","","","","","","","",""
"Single-Cross-Gaze","20","47842","0.0-6.0-0.7","","","","","","","","","","","","","","","","","","","","","253","[{""startTime"":1689888510476,""x"":1202,""y"":126,""analysisTime"":33},{""startTime"":1689888510519,""x"":1185,""y"":140,""analysisTime"":39},{""startTime"":1689888510568,""x"":1159,""y"":151,""analysisTime"":39},{""startTime"":1689888510618,""x"":1105,""y"":201,""analysisTime"":37},{""startTime"":1689888510665,""x"":1172,""y"":86,""analysisTime"":26},{""startTime"":1689888510701,""x"":1038,""y"":250,""analysisTime"":29},{""startTime"":1689888510741,""x"":932,""y"":287,""analysisTime"":36},{""startTime"":1689888510789,""x"":718,""y"":559,""analysisTime"":24},{""startTime"":1689888510824,""x"":849,""y"":662,""analysisTime"":33},{""startTime"":1689888510868,""x"":983,""y"":472,""analysisTime"":38},{""startTime"":1689888510917,""x"":799,""y"":466,""analysisTime"":26},{""startTime"":1689888510958,""x"":761,""y"":430,""analysisTime"":41},{""startTime"":1689888511009,""x"":924,""y"":478,""analysisTime"":40},{""startTime"":1689888511059,""x"":871,""y"":488,""analysisTime"":39},{""startTime"":1689888511108,""x"":748,""y"":442,""analysisTime"":39},{""startTime"":1689888511157,""x"":783,""y"":402,""analysisTime"":39}]","720","","","","","","","","","","","","","","","","","","","","","","","","","","","","","","","","","","","","","","","","","","","","","","",""
"Single-Dot-Duration","21","49389","0.0-6.0-1.7","","","","","","","","","","","","","","","","","","","","","","","","1440","718","[{""startTime"":0,""x"":816,""y"":378,""analysisTime"":20},{""startTime"":31,""x"":759,""y"":349,""analysisTime"":34},{""startTime"":75,""x"":774,""y"":376,""analysisTime"":38},{""startTime"":124,""x"":787,""y"":339,""analysisTime"":39},{""startTime"":173,""x"":741,""y"":302,""analysisTime"":39},{""startTime"":223,""x"":759,""y"":335,""analysisTime"":38},{""startTime"":272,""x"":767,""y"":347,""analysisTime"":38},{""startTime"":344,""x"":811,""y"":326,""analysisTime"":30},{""startTime"":385,""x"":780,""y"":322,""analysisTime"":25},{""startTime"":428,""x"":740,""y"":315,""analysisTime"":39},{""startTime"":478,""x"":787,""y"":339,""analysisTime"":46},{""startTime"":535,""x"":722,""y"":326,""analysisTime"":31},{""startTime"":577,""x"":714,""y"":324,""analysisTime"":38},{""startTime"":625,""x"":800,""y"":320,""analysisTime"":39},{""startTime"":675,""x"":782,""y"":318,""analysisTime"":37},{""startTime"":722,""x"":742,""y"":319,""analysisTime"":26},{""startTime"":761,""x"":404,""y"":476,""analysisTime"":39},{""startTime"":811,""x"":434,""y"":597,""analysisTime"":38},{""startTime"":859,""x"":369,""y"":631,""analysisTime"":26},{""startTime"":896,""x"":298,""y"":645,""analysisTime"":34},{""startTime"":941,""x"":274,""y"":589,""analysisTime"":37},{""startTime"":988,""x"":195,""y"":613,""analysisTime"":26},{""startTime"":1027,""x"":110,""y"":694,""analysisTime"":39},{""startTime"":1076,""x"":244,""y"":728,""analysisTime"":38},{""startTime"":1125,""x"":235,""y"":657,""analysisTime"":39},{""startTime"":1175,""x"":260,""y"":652,""analysisTime"":37},{""startTime"":1222,""x"":264,""y"":699,""analysisTime"":26},{""startTime"":1261,""x"":210,""y"":675,""analysisTime"":39},{""startTime"":1310,""x"":147,""y"":725,""analysisTime"":39},{""startTime"":1360,""x"":177,""y"":636,""analysisTime"":39},{""startTime"":1410,""x"":167,""y"":636,""analysisTime"":38},{""startTime"":1458,""x"":142,""y"":705,""analysisTime"":39},{""startTime"":1508,""x"":226,""y"":645,""analysisTime"":38}]","686.796875","636.796875","191","241","false","7","","","","","","","","","","","","","","","","","","","","","","","","","","","","","","","","","","","","","",""
"html-keyboard-response","22","51038","0.0-7.0","","","","","","","","","","","","","","","","","1648","SINGLE-DOT-DURATION trials are completed. <p>The next block will contain 5 DOUBLE-IMAGE-GAZE trials. This is the only trial types in which a gaze response is necessary to complete the trial.</p><p>To finish a trial, please gaze at one of the stimuli for 1000ms straight.</p>  Press [space] to continue"," ","","","","","","","","","","","","","","","","","","","","","","","","","","","","","","","","","","","","","","","","","","","","","","","","","","",""
"Double-Image-Gaze","23","52159","0.0-8.0-0.0","","","","","","","","","","","","","","","","","","","","","","","","1440","718","","","","","","","","1121","[{""startTime"":0,""x"":729,""y"":185,""analysisTime"":34},{""startTime"":44,""x"":834,""y"":274,""analysisTime"":39},{""startTime"":94,""x"":857,""y"":212,""analysisTime"":38},{""startTime"":142,""x"":857,""y"":212,""analysisTime"":26},{""startTime"":182,""x"":935,""y"":217,""analysisTime"":39},{""startTime"":232,""x"":846,""y"":286,""analysisTime"":39},{""startTime"":283,""x"":822,""y"":200,""analysisTime"":38},{""startTime"":331,""x"":930,""y"":257,""analysisTime"":39},{""startTime"":381,""x"":945,""y"":288,""analysisTime"":37},{""startTime"":428,""x"":957,""y"":289,""analysisTime"":27},{""startTime"":466,""x"":867,""y"":236,""analysisTime"":34},{""startTime"":510,""x"":962,""y"":211,""analysisTime"":38},{""startTime"":559,""x"":920,""y"":168,""analysisTime"":38},{""startTime"":607,""x"":899,""y"":328,""analysisTime"":26},{""startTime"":650,""x"":897,""y"":273,""analysisTime"":39},{""startTime"":701,""x"":918,""y"":186,""analysisTime"":38},{""startTime"":749,""x"":863,""y"":198,""analysisTime"":39},{""startTime"":799,""x"":860,""y"":267,""analysisTime"":39},{""startTime"":849,""x"":943,""y"":191,""analysisTime"":37},{""startTime"":897,""x"":977,""y"":244,""analysisTime"":39},{""startTime"":946,""x"":992,""y"":191,""analysisTime"":38},{""startTime"":994,""x"":950,""y"":238,""analysisTime"":39},{""startTime"":1043,""x"":967,""y"":224,""analysisTime"":25},{""startTime"":1082,""x"":902,""y"":285,""analysisTime"":39}]","./img/birds/bird1.jpeg","./img/birds/bird2.jpeg","{""x"":255,""y"":226.5,""width"":450,""height"":318,""top"":226.5,""right"":705,""bottom"":544.5,""left"":255}","{""x"":705,""y"":226.5,""width"":480,""height"":318,""top"":226.5,""right"":1185,""bottom"":544.5,""left"":705}","right","","","","","","","","","","","","","","","","","","","","","","","","","","","","","","",""
"Double-Image-Gaze","24","53243","0.0-8.0-0.1","","","","","","","","","","","","","","","","","","","","","","","","1440","718","","","","","","","","1083","[{""startTime"":0,""x"":902,""y"":285,""analysisTime"":21},{""startTime"":32,""x"":826,""y"":251,""analysisTime"":34},{""startTime"":76,""x"":900,""y"":300,""analysisTime"":39},{""startTime"":125,""x"":977,""y"":308,""analysisTime"":38},{""startTime"":173,""x"":898,""y"":299,""analysisTime"":39},{""startTime"":222,""x"":915,""y"":317,""analysisTime"":25},{""startTime"":260,""x"":934,""y"":283,""analysisTime"":39},{""startTime"":309,""x"":894,""y"":295,""analysisTime"":40},{""startTime"":360,""x"":886,""y"":248,""analysisTime"":37},{""startTime"":408,""x"":852,""y"":293,""analysisTime"":38},{""startTime"":456,""x"":863,""y"":228,""analysisTime"":38},{""startTime"":504,""x"":936,""y"":202,""analysisTime"":38},{""startTime"":552,""x"":939,""y"":218,""analysisTime"":26},{""startTime"":595,""x"":877,""y"":184,""analysisTime"":39},{""startTime"":645,""x"":937,""y"":233,""analysisTime"":38},{""startTime"":694,""x"":907,""y"":222,""analysisTime"":38},{""startTime"":742,""x"":900,""y"":189,""analysisTime"":39},{""startTime"":791,""x"":955,""y"":135,""analysisTime"":40},{""startTime"":842,""x"":905,""y"":199,""analysisTime"":40},{""startTime"":918,""x"":924,""y"":197,""analysisTime"":32},{""startTime"":960,""x"":924,""y"":197,""analysisTime"":27},{""startTime"":998,""x"":958,""y"":242,""analysisTime"":36},{""startTime"":1045,""x"":919,""y"":203,""analysisTime"":38}]","./img/birds/bird5.jpeg","./img/birds/bird6.jpeg","{""x"":255,""y"":226.5,""width"":450,""height"":318,""top"":226.5,""right"":705,""bottom"":544.5,""left"":255}","{""x"":705,""y"":226.5,""width"":480,""height"":318,""top"":226.5,""right"":1185,""bottom"":544.5,""left"":705}","right","","","","","","","","","","","","","","","","","","","","","","","","","","","","","","",""
"Double-Image-Gaze","25","54652","0.0-8.0-0.2","","","","","","","","","","","","","","","","","","","","","","","","1440","718","","","","","","","","1409","[{""startTime"":0,""x"":839,""y"":200,""analysisTime"":21},{""startTime"":32,""x"":938,""y"":217,""analysisTime"":34},{""startTime"":77,""x"":1018,""y"":221,""analysisTime"":38},{""startTime"":125,""x"":1019,""y"":230,""analysisTime"":38},{""startTime"":174,""x"":836,""y"":359,""analysisTime"":38},{""startTime"":222,""x"":957,""y"":232,""analysisTime"":26},{""startTime"":259,""x"":937,""y"":230,""analysisTime"":39},{""startTime"":309,""x"":808,""y"":233,""analysisTime"":38},{""startTime"":358,""x"":418,""y"":241,""analysisTime"":39},{""startTime"":408,""x"":570,""y"":253,""analysisTime"":38},{""startTime"":457,""x"":501,""y"":237,""analysisTime"":39},{""startTime"":507,""x"":501,""y"":237,""analysisTime"":25},{""startTime"":544,""x"":459,""y"":201,""analysisTime"":33},{""startTime"":588,""x"":388,""y"":225,""analysisTime"":26},{""startTime"":627,""x"":341,""y"":305,""analysisTime"":39},{""startTime"":676,""x"":379,""y"":323,""analysisTime"":39},{""startTime"":725,""x"":416,""y"":296,""analysisTime"":39},{""startTime"":774,""x"":429,""y"":316,""analysisTime"":38},{""startTime"":823,""x"":454,""y"":306,""analysisTime"":38},{""startTime"":872,""x"":458,""y"":299,""analysisTime"":39},{""startTime"":921,""x"":370,""y"":277,""analysisTime"":39},{""startTime"":970,""x"":381,""y"":241,""analysisTime"":40},{""startTime"":1020,""x"":408,""y"":272,""analysisTime"":26},{""startTime"":1057,""x"":407,""y"":272,""analysisTime"":20},{""startTime"":1089,""x"":417,""y"":219,""analysisTime"":21},{""startTime"":1128,""x"":374,""y"":224,""analysisTime"":39},{""startTime"":1177,""x"":369,""y"":226,""analysisTime"":39},{""startTime"":1226,""x"":405,""y"":216,""analysisTime"":39},{""startTime"":1276,""x"":418,""y"":231,""analysisTime"":37},{""startTime"":1324,""x"":432,""y"":166,""analysisTime"":37},{""startTime"":1372,""x"":565,""y"":207,""analysisTime"":37}]","./img/birds/bird3.jpeg","./img/birds/bird4.jpeg","{""x"":255,""y"":226.5,""width"":450,""height"":318,""top"":226.5,""right"":705,""bottom"":544.5,""left"":255}","{""x"":705,""y"":226.5,""width"":480,""height"":318,""top"":226.5,""right"":1185,""bottom"":544.5,""left"":705}","left","","","","","","","","","","","","","","","","","","","","","","","","","","","","","","",""
"Double-Image-Gaze","26","55709","0.0-8.0-0.3","","","","","","","","","","","","","","","","","","","","","","","","1440","718","","","","","","","","1056","[{""startTime"":0,""x"":462,""y"":288,""analysisTime"":33},{""startTime"":44,""x"":442,""y"":564,""analysisTime"":43},{""startTime"":97,""x"":517,""y"":332,""analysisTime"":41},{""startTime"":148,""x"":488,""y"":295,""analysisTime"":39},{""startTime"":198,""x"":597,""y"":263,""analysisTime"":38},{""startTime"":246,""x"":580,""y"":256,""analysisTime"":39},{""startTime"":296,""x"":580,""y"":256,""analysisTime"":27},{""startTime"":339,""x"":664,""y"":296,""analysisTime"":45},{""startTime"":394,""x"":642,""y"":277,""analysisTime"":24},{""startTime"":429,""x"":657,""y"":261,""analysisTime"":32},{""startTime"":471,""x"":486,""y"":225,""analysisTime"":40},{""startTime"":521,""x"":451,""y"":212,""analysisTime"":39},{""startTime"":570,""x"":554,""y"":247,""analysisTime"":40},{""startTime"":621,""x"":522,""y"":257,""analysisTime"":37},{""startTime"":668,""x"":499,""y"":264,""analysisTime"":39},{""startTime"":717,""x"":471,""y"":238,""analysisTime"":40},{""startTime"":768,""x"":471,""y"":238,""analysisTime"":25},{""startTime"":804,""x"":486,""y"":274,""analysisTime"":33},{""startTime"":848,""x"":510,""y"":262,""analysisTime"":39},{""startTime"":898,""x"":510,""y"":262,""analysisTime"":24},{""startTime"":934,""x"":476,""y"":206,""analysisTime"":34},{""startTime"":978,""x"":437,""y"":269,""analysisTime"":26},{""startTime"":1018,""x"":523,""y"":272,""analysisTime"":38}]","./img/birds/bird7.jpeg","./img/birds/bird8.jpeg","{""x"":255,""y"":226.5,""width"":450,""height"":318,""top"":226.5,""right"":705,""bottom"":544.5,""left"":255}","{""x"":705,""y"":226.5,""width"":480,""height"":318,""top"":226.5,""right"":1185,""bottom"":544.5,""left"":705}","left","","","","","","","","","","","","","","","","","","","","","","","","","","","","","","",""
"Double-Image-Gaze","27","57390","0.0-8.0-0.4","","","","","","","","","","","","","","","","","","","","","","","","1440","718","","","","","","","","1680","[{""startTime"":0,""x"":523,""y"":272,""analysisTime"":20},{""startTime"":31,""x"":458,""y"":232,""analysisTime"":34},{""startTime"":76,""x"":441,""y"":249,""analysisTime"":38},{""startTime"":125,""x"":414,""y"":291,""analysisTime"":38},{""startTime"":173,""x"":466,""y"":274,""analysisTime"":40},{""startTime"":223,""x"":558,""y"":251,""analysisTime"":39},{""startTime"":272,""x"":526,""y"":269,""analysisTime"":38},{""startTime"":320,""x"":508,""y"":243,""analysisTime"":38},{""startTime"":369,""x"":508,""y"":243,""analysisTime"":25},{""startTime"":412,""x"":504,""y"":218,""analysisTime"":39},{""startTime"":461,""x"":500,""y"":198,""analysisTime"":39},{""startTime"":511,""x"":512,""y"":215,""analysisTime"":39},{""startTime"":560,""x"":898,""y"":569,""analysisTime"":39},{""startTime"":609,""x"":798,""y"":416,""analysisTime"":38},{""startTime"":660,""x"":836,""y"":264,""analysisTime"":45},{""startTime"":718,""x"":814,""y"":243,""analysisTime"":25},{""startTime"":761,""x"":911,""y"":270,""analysisTime"":38},{""startTime"":810,""x"":877,""y"":231,""analysisTime"":39},{""startTime"":860,""x"":849,""y"":265,""analysisTime"":37},{""startTime"":907,""x"":850,""y"":261,""analysisTime"":39},{""startTime"":956,""x"":819,""y"":267,""analysisTime"":38},{""startTime"":1005,""x"":874,""y"":231,""analysisTime"":38},{""startTime"":1054,""x"":841,""y"":238,""analysisTime"":26},{""startTime"":1093,""x"":808,""y"":291,""analysisTime"":39},{""startTime"":1143,""x"":813,""y"":256,""analysisTime"":38},{""startTime"":1191,""x"":895,""y"":256,""analysisTime"":40},{""startTime"":1242,""x"":909,""y"":260,""analysisTime"":40},{""startTime"":1292,""x"":861,""y"":253,""analysisTime"":27},{""startTime"":1330,""x"":876,""y"":240,""analysisTime"":33},{""startTime"":1374,""x"":893,""y"":269,""analysisTime"":28},{""startTime"":1414,""x"":879,""y"":276,""analysisTime"":25},{""startTime"":1450,""x"":878,""y"":281,""analysisTime"":34},{""startTime"":1495,""x"":862,""y"":267,""analysisTime"":39},{""startTime"":1544,""x"":838,""y"":259,""analysisTime"":38},{""startTime"":1592,""x"":809,""y"":245,""analysisTime"":39},{""startTime"":1641,""x"":839,""y"":275,""analysisTime"":39}]","./img/birds/bird9.jpeg","./img/birds/bird10.jpeg","{""x"":255,""y"":226.5,""width"":450,""height"":318,""top"":226.5,""right"":705,""bottom"":544.5,""left"":255}","{""x"":705,""y"":226.5,""width"":480,""height"":318,""top"":226.5,""right"":1185,""bottom"":544.5,""left"":705}","right","","","","","","","","","","","","","","","","","","","","","","","","","","","","","","",""
"html-keyboard-response","28","57908","0.0-9.0","","","","","","","","","","","","","","","","","519","Active vision trials are completed. <p>The next set of trials will demonstrate the DOUBLE-IMAGE-KEY trial type.</p><p>To end a trial, you will need to provide a key response. Use the [f] or [j] keys to end a trial.</p> <p>To proceed to the trials, press the [space] key.</p>"," ","","","","","","","","","","","","","","","","","","","","","","","","","","","","","","","","","","","","","","","","","","","","","","","","","","",""
"Double-Image-Key","29","59478","0.0-10.0-0.0","","","","","","","","","","","","","","","","","","","","","","","","1440","718","","","","","","","","","","","","","","","[{""startTime"":0,""x"":875,""y"":286,""analysisTime"":41},{""startTime"":52,""x"":794,""y"":235,""analysisTime"":28},{""startTime"":95,""x"":740,""y"":252,""analysisTime"":42},{""startTime"":147,""x"":803,""y"":222,""analysisTime"":41},{""startTime"":198,""x"":886,""y"":234,""analysisTime"":39},{""startTime"":248,""x"":859,""y"":294,""analysisTime"":39},{""startTime"":298,""x"":652,""y"":287,""analysisTime"":38},{""startTime"":346,""x"":661,""y"":262,""analysisTime"":39},{""startTime"":395,""x"":720,""y"":195,""analysisTime"":39},{""startTime"":444,""x"":738,""y"":227,""analysisTime"":39},{""startTime"":493,""x"":776,""y"":274,""analysisTime"":39},{""startTime"":542,""x"":897,""y"":261,""analysisTime"":38},{""startTime"":590,""x"":678,""y"":478,""analysisTime"":39},{""startTime"":640,""x"":739,""y"":477,""analysisTime"":25},{""startTime"":678,""x"":790,""y"":522,""analysisTime"":39},{""startTime"":728,""x"":939,""y"":455,""analysisTime"":38},{""startTime"":776,""x"":841,""y"":588,""analysisTime"":27},{""startTime"":814,""x"":926,""y"":497,""analysisTime"":34},{""startTime"":858,""x"":758,""y"":323,""analysisTime"":39},{""startTime"":907,""x"":538,""y"":377,""analysisTime"":39},{""startTime"":956,""x"":596,""y"":324,""analysisTime"":39},{""startTime"":1006,""x"":515,""y"":256,""analysisTime"":25},{""startTime"":1043,""x"":485,""y"":221,""analysisTime"":38},{""startTime"":1091,""x"":438,""y"":284,""analysisTime"":26},{""startTime"":1129,""x"":414,""y"":237,""analysisTime"":34},{""startTime"":1174,""x"":459,""y"":283,""analysisTime"":39},{""startTime"":1224,""x"":679,""y"":195,""analysisTime"":38},{""startTime"":1272,""x"":481,""y"":161,""analysisTime"":27},{""startTime"":1311,""x"":329,""y"":180,""analysisTime"":33},{""startTime"":1355,""x"":726,""y"":157,""analysisTime"":39},{""startTime"":1404,""x"":1017,""y"":190,""analysisTime"":40},{""startTime"":1460,""x"":1170,""y"":244,""analysisTime"":26}]","./img/birds/bird7.jpeg","./img/birds/bird8.jpeg","{""LstimTop"":226.5,""LstimBot"":544.5,""LstimLeft"":240,""LstimRight"":720,""RstimTop"":226.5,""RstimBot"":544.5,""RstimLeft"":720,""RstimRight"":1200}","{""key"":""j"",""rt"":1569}","","","","","","","","","","","","","","","","","","","","","","","","","",""
"Double-Image-Key","30","62063","0.0-10.0-0.1","","","","","","","","","","","","","","","","","","","","","","","","1440","718","","","","","","","","","","","","","","","[{""startTime"":1505,""x"":1154,""y"":287,""analysisTime"":96},{""startTime"":0,""x"":1022,""y"":197,""analysisTime"":40},{""startTime"":45,""x"":1123,""y"":286,""analysisTime"":43},{""startTime"":50,""x"":1123,""y"":286,""analysisTime"":38},{""startTime"":99,""x"":1047,""y"":259,""analysisTime"":47},{""startTime"":124,""x"":1047,""y"":259,""analysisTime"":30},{""startTime"":158,""x"":1007,""y"":237,""analysisTime"":45},{""startTime"":166,""x"":1007,""y"":237,""analysisTime"":37},{""startTime"":214,""x"":953,""y"":301,""analysisTime"":41},{""startTime"":218,""x"":953,""y"":301,""analysisTime"":37},{""startTime"":265,""x"":1074,""y"":273,""analysisTime"":37},{""startTime"":269,""x"":1074,""y"":273,""analysisTime"":33},{""startTime"":314,""x"":1114,""y"":272,""analysisTime"":36},{""startTime"":318,""x"":1114,""y"":272,""analysisTime"":32},{""startTime"":362,""x"":581,""y"":147,""analysisTime"":35},{""startTime"":366,""x"":655,""y"":235,""analysisTime"":31},{""startTime"":408,""x"":283,""y"":274,""analysisTime"":40},{""startTime"":412,""x"":283,""y"":274,""analysisTime"":36},{""startTime"":459,""x"":294,""y"":505,""analysisTime"":41},{""startTime"":463,""x"":294,""y"":505,""analysisTime"":37},{""startTime"":511,""x"":442,""y"":332,""analysisTime"":38},{""startTime"":515,""x"":442,""y"":332,""analysisTime"":34},{""startTime"":560,""x"":397,""y"":341,""analysisTime"":39},{""startTime"":564,""x"":397,""y"":341,""analysisTime"":35},{""startTime"":610,""x"":304,""y"":287,""analysisTime"":40},{""startTime"":614,""x"":396,""y"":289,""analysisTime"":36},{""startTime"":661,""x"":279,""y"":280,""analysisTime"":39},{""startTime"":665,""x"":279,""y"":280,""analysisTime"":35},{""startTime"":711,""x"":298,""y"":188,""analysisTime"":38},{""startTime"":715,""x"":298,""y"":188,""analysisTime"":34},{""startTime"":760,""x"":270,""y"":205,""analysisTime"":40},{""startTime"":764,""x"":270,""y"":205,""analysisTime"":36},{""startTime"":811,""x"":228,""y"":193,""analysisTime"":38},{""startTime"":815,""x"":228,""y"":193,""analysisTime"":34},{""startTime"":860,""x"":260,""y"":234,""analysisTime"":37},{""startTime"":864,""x"":260,""y"":234,""analysisTime"":33},{""startTime"":908,""x"":222,""y"":235,""analysisTime"":41},{""startTime"":911,""x"":222,""y"":235,""analysisTime"":38},{""startTime"":960,""x"":293,""y"":312,""analysisTime"":40},{""startTime"":964,""x"":293,""y"":312,""analysisTime"":36},{""startTime"":1012,""x"":347,""y"":256,""analysisTime"":36},{""startTime"":1016,""x"":347,""y"":256,""analysisTime"":32},{""startTime"":1059,""x"":327,""y"":215,""analysisTime"":41},{""startTime"":1064,""x"":327,""y"":215,""analysisTime"":36},{""startTime"":1111,""x"":365,""y"":308,""analysisTime"":38},{""startTime"":1115,""x"":365,""y"":308,""analysisTime"":34},{""startTime"":1160,""x"":402,""y"":356,""analysisTime"":40},{""startTime"":1164,""x"":402,""y"":356,""analysisTime"":36},{""startTime"":1211,""x"":425,""y"":374,""analysisTime"":39},{""startTime"":1215,""x"":376,""y"":344,""analysisTime"":35},{""startTime"":1262,""x"":295,""y"":266,""analysisTime"":36},{""startTime"":1266,""x"":295,""y"":266,""analysisTime"":32},{""startTime"":1309,""x"":438,""y"":236,""analysisTime"":40},{""startTime"":1313,""x"":438,""y"":236,""analysisTime"":36},{""startTime"":1359,""x"":350,""y"":246,""analysisTime"":40},{""startTime"":1363,""x"":350,""y"":246,""analysisTime"":36},{""startTime"":1410,""x"":373,""y"":339,""analysisTime"":39},{""startTime"":1415,""x"":373,""y"":339,""analysisTime"":34},{""startTime"":1461,""x"":496,""y"":655,""analysisTime"":37},{""startTime"":1465,""x"":496,""y"":655,""analysisTime"":33},{""startTime"":1509,""x"":706,""y"":513,""analysisTime"":41},{""startTime"":1513,""x"":667,""y"":530,""analysisTime"":37},{""startTime"":1560,""x"":726,""y"":559,""analysisTime"":40},{""startTime"":1564,""x"":668,""y"":566,""analysisTime"":36},{""startTime"":1611,""x"":542,""y"":529,""analysisTime"":37},{""startTime"":1615,""x"":661,""y"":549,""analysisTime"":33},{""startTime"":1659,""x"":694,""y"":460,""analysisTime"":40},{""startTime"":1663,""x"":694,""y"":460,""analysisTime"":36},{""startTime"":1710,""x"":773,""y"":579,""analysisTime"":40},{""startTime"":1714,""x"":773,""y"":579,""analysisTime"":36},{""startTime"":1762,""x"":616,""y"":633,""analysisTime"":37},{""startTime"":1766,""x"":707,""y"":568,""analysisTime"":33},{""startTime"":1810,""x"":509,""y"":431,""analysisTime"":40},{""startTime"":1814,""x"":462,""y"":469,""analysisTime"":36},{""startTime"":1861,""x"":441,""y"":409,""analysisTime"":37},{""startTime"":1865,""x"":441,""y"":409,""analysisTime"":33},{""startTime"":1908,""x"":267,""y"":464,""analysisTime"":41},{""startTime"":1912,""x"":423,""y"":502,""analysisTime"":37},{""startTime"":1960,""x"":678,""y"":558,""analysisTime"":40},{""startTime"":1964,""x"":551,""y"":608,""analysisTime"":36},{""startTime"":2012,""x"":768,""y"":589,""analysisTime"":71},{""startTime"":2019,""x"":768,""y"":589,""analysisTime"":64},{""startTime"":2094,""x"":806,""y"":661,""analysisTime"":39},{""startTime"":2098,""x"":806,""y"":661,""analysisTime"":35},{""startTime"":2144,""x"":789,""y"":567,""analysisTime"":38},{""startTime"":2148,""x"":789,""y"":567,""analysisTime"":34},{""startTime"":2193,""x"":651,""y"":581,""analysisTime"":40},{""startTime"":2197,""x"":651,""y"":581,""analysisTime"":36},{""startTime"":2244,""x"":383,""y"":406,""analysisTime"":37},{""startTime"":2248,""x"":326,""y"":527,""analysisTime"":33},{""startTime"":2292,""x"":369,""y"":418,""analysisTime"":38},{""startTime"":2296,""x"":369,""y"":418,""analysisTime"":34},{""startTime"":2341,""x"":176,""y"":433,""analysisTime"":39},{""startTime"":2345,""x"":176,""y"":433,""analysisTime"":35},{""startTime"":2392,""x"":328,""y"":405,""analysisTime"":42},{""startTime"":2395,""x"":328,""y"":405,""analysisTime"":39},{""startTime"":2445,""x"":263,""y"":432,""analysisTime"":37},{""startTime"":2449,""x"":263,""y"":432,""analysisTime"":33},{""startTime"":2493,""x"":424,""y"":362,""analysisTime"":40},{""startTime"":2497,""x"":424,""y"":362,""analysisTime"":36},{""startTime"":2544,""x"":291,""y"":385,""analysisTime"":39},{""startTime"":2548,""x"":291,""y"":385,""analysisTime"":35}]","./img/birds/bird3.jpeg","./img/birds/bird4.jpeg","{""LstimTop"":226.5,""LstimBot"":544.5,""LstimLeft"":240,""LstimRight"":720,""RstimTop"":226.5,""RstimBot"":544.5,""RstimLeft"":720,""RstimRight"":1200}","{""key"":""f"",""rt"":2584}","","","","","","","","","","","","","","","","","","","","","","","","","",""
"Double-Image-Key","31","63683","0.0-10.0-0.2","","","","","","","","","","","","","","","","","","","","","","","","1440","718","","","","","","","","","","","","","","","[{""startTime"":0,""x"":161,""y"":317,""analysisTime"":54},{""startTime"":19,""x"":265,""y"":268,""analysisTime"":47},{""startTime"":23,""x"":259,""y"":314,""analysisTime"":43},{""startTime"":66,""x"":238,""y"":311,""analysisTime"":54},{""startTime"":86,""x"":238,""y"":311,""analysisTime"":46},{""startTime"":90,""x"":355,""y"":248,""analysisTime"":42},{""startTime"":132,""x"":347,""y"":246,""analysisTime"":30},{""startTime"":162,""x"":195,""y"":281,""analysisTime"":46},{""startTime"":166,""x"":195,""y"":281,""analysisTime"":42},{""startTime"":189,""x"":230,""y"":362,""analysisTime"":36},{""startTime"":229,""x"":338,""y"":252,""analysisTime"":57},{""startTime"":233,""x"":320,""y"":253,""analysisTime"":53},{""startTime"":259,""x"":320,""y"":253,""analysisTime"":35},{""startTime"":297,""x"":389,""y"":207,""analysisTime"":57},{""startTime"":301,""x"":389,""y"":207,""analysisTime"":53},{""startTime"":328,""x"":484,""y"":224,""analysisTime"":33},{""startTime"":365,""x"":420,""y"":205,""analysisTime"":57},{""startTime"":370,""x"":420,""y"":205,""analysisTime"":52},{""startTime"":396,""x"":205,""y"":203,""analysisTime"":34},{""startTime"":436,""x"":322,""y"":232,""analysisTime"":57},{""startTime"":440,""x"":341,""y"":199,""analysisTime"":53},{""startTime"":443,""x"":322,""y"":232,""analysisTime"":50},{""startTime"":505,""x"":548,""y"":208,""analysisTime"":52},{""startTime"":509,""x"":471,""y"":183,""analysisTime"":48},{""startTime"":512,""x"":466,""y"":288,""analysisTime"":45},{""startTime"":568,""x"":434,""y"":220,""analysisTime"":52},{""startTime"":572,""x"":433,""y"":182,""analysisTime"":48},{""startTime"":576,""x"":462,""y"":237,""analysisTime"":44},{""startTime"":632,""x"":417,""y"":251,""analysisTime"":54},{""startTime"":636,""x"":417,""y"":251,""analysisTime"":50},{""startTime"":640,""x"":455,""y"":280,""analysisTime"":46},{""startTime"":698,""x"":782,""y"":225,""analysisTime"":51},{""startTime"":702,""x"":796,""y"":147,""analysisTime"":47},{""startTime"":707,""x"":782,""y"":225,""analysisTime"":42},{""startTime"":761,""x"":791,""y"":240,""analysisTime"":53},{""startTime"":765,""x"":911,""y"":211,""analysisTime"":49},{""startTime"":769,""x"":832,""y"":245,""analysisTime"":45},{""startTime"":826,""x"":890,""y"":263,""analysisTime"":50},{""startTime"":830,""x"":890,""y"":263,""analysisTime"":47},{""startTime"":835,""x"":860,""y"":232,""analysisTime"":42},{""startTime"":888,""x"":828,""y"":184,""analysisTime"":52},{""startTime"":893,""x"":828,""y"":184,""analysisTime"":47},{""startTime"":897,""x"":828,""y"":184,""analysisTime"":43},{""startTime"":952,""x"":829,""y"":140,""analysisTime"":51},{""startTime"":956,""x"":829,""y"":140,""analysisTime"":47},{""startTime"":960,""x"":829,""y"":140,""analysisTime"":43},{""startTime"":1014,""x"":863,""y"":590,""analysisTime"":53},{""startTime"":1019,""x"":844,""y"":560,""analysisTime"":48},{""startTime"":1022,""x"":877,""y"":579,""analysisTime"":45},{""startTime"":1079,""x"":794,""y"":406,""analysisTime"":52},{""startTime"":1083,""x"":773,""y"":388,""analysisTime"":48},{""startTime"":1087,""x"":773,""y"":388,""analysisTime"":44},{""startTime"":1142,""x"":938,""y"":744,""analysisTime"":53},{""startTime"":1146,""x"":834,""y"":727,""analysisTime"":49},{""startTime"":1150,""x"":860,""y"":740,""analysisTime"":45},{""startTime"":1206,""x"":961,""y"":649,""analysisTime"":52},{""startTime"":1210,""x"":961,""y"":649,""analysisTime"":48},{""startTime"":1214,""x"":961,""y"":649,""analysisTime"":44},{""startTime"":1269,""x"":821,""y"":551,""analysisTime"":54},{""startTime"":1273,""x"":874,""y"":454,""analysisTime"":50},{""startTime"":1277,""x"":874,""y"":454,""analysisTime"":46},{""startTime"":1334,""x"":845,""y"":466,""analysisTime"":62},{""startTime"":1338,""x"":692,""y"":417,""analysisTime"":58},{""startTime"":1343,""x"":692,""y"":417,""analysisTime"":53},{""startTime"":1411,""x"":886,""y"":462,""analysisTime"":78},{""startTime"":1416,""x"":886,""y"":462,""analysisTime"":73},{""startTime"":1419,""x"":886,""y"":462,""analysisTime"":70},{""startTime"":1500,""x"":797,""y"":416,""analysisTime"":54},{""startTime"":1504,""x"":797,""y"":416,""analysisTime"":50},{""startTime"":1508,""x"":797,""y"":416,""analysisTime"":46},{""startTime"":1566,""x"":850,""y"":411,""analysisTime"":53},{""startTime"":1570,""x"":850,""y"":411,""analysisTime"":49},{""startTime"":1574,""x"":850,""y"":411,""analysisTime"":45}]","./img/birds/bird9.jpeg","./img/birds/bird10.jpeg","{""LstimTop"":226.5,""LstimBot"":544.5,""LstimLeft"":240,""LstimRight"":720,""RstimTop"":226.5,""RstimBot"":544.5,""RstimLeft"":720,""RstimRight"":1200}","{""key"":""f"",""rt"":1619}","","","","","","","","","","","","","","","","","","","","","","","","","",""
"Double-Image-Key","32","65974","0.0-10.0-0.3","","","","","","","","","","","","","","","","","","","","","","","","1440","718","","","","","","","","","","","","","","","[{""startTime"":0,""x"":853,""y"":371,""analysisTime"":70},{""startTime"":20,""x"":853,""y"":371,""analysisTime"":61},{""startTime"":24,""x"":853,""y"":371,""analysisTime"":57},{""startTime"":27,""x"":853,""y"":371,""analysisTime"":54},{""startTime"":87,""x"":809,""y"":393,""analysisTime"":85},{""startTime"":91,""x"":809,""y"":393,""analysisTime"":82},{""startTime"":95,""x"":809,""y"":393,""analysisTime"":78},{""startTime"":98,""x"":809,""y"":393,""analysisTime"":75},{""startTime"":183,""x"":839,""y"":382,""analysisTime"":72},{""startTime"":186,""x"":839,""y"":382,""analysisTime"":69},{""startTime"":190,""x"":683,""y"":350,""analysisTime"":65},{""startTime"":193,""x"":839,""y"":382,""analysisTime"":62},{""startTime"":266,""x"":847,""y"":354,""analysisTime"":70},{""startTime"":270,""x"":847,""y"":354,""analysisTime"":66},{""startTime"":275,""x"":847,""y"":354,""analysisTime"":61},{""startTime"":279,""x"":847,""y"":354,""analysisTime"":57},{""startTime"":347,""x"":1002,""y"":314,""analysisTime"":68},{""startTime"":351,""x"":917,""y"":277,""analysisTime"":64},{""startTime"":356,""x"":1002,""y"":314,""analysisTime"":59},{""startTime"":359,""x"":917,""y"":277,""analysisTime"":56},{""startTime"":427,""x"":972,""y"":321,""analysisTime"":68},{""startTime"":431,""x"":972,""y"":321,""analysisTime"":64},{""startTime"":436,""x"":972,""y"":321,""analysisTime"":59},{""startTime"":440,""x"":972,""y"":321,""analysisTime"":55},{""startTime"":507,""x"":822,""y"":357,""analysisTime"":67},{""startTime"":511,""x"":822,""y"":357,""analysisTime"":63},{""startTime"":515,""x"":822,""y"":357,""analysisTime"":59},{""startTime"":518,""x"":822,""y"":357,""analysisTime"":56},{""startTime"":585,""x"":819,""y"":331,""analysisTime"":69},{""startTime"":589,""x"":819,""y"":331,""analysisTime"":65},{""startTime"":594,""x"":819,""y"":331,""analysisTime"":60},{""startTime"":597,""x"":717,""y"":333,""analysisTime"":57},{""startTime"":665,""x"":928,""y"":291,""analysisTime"":69},{""startTime"":669,""x"":928,""y"":291,""analysisTime"":65},{""startTime"":674,""x"":928,""y"":291,""analysisTime"":60},{""startTime"":677,""x"":928,""y"":291,""analysisTime"":57},{""startTime"":746,""x"":890,""y"":311,""analysisTime"":68},{""startTime"":750,""x"":855,""y"":306,""analysisTime"":64},{""startTime"":754,""x"":855,""y"":306,""analysisTime"":60},{""startTime"":758,""x"":855,""y"":306,""analysisTime"":56},{""startTime"":826,""x"":837,""y"":347,""analysisTime"":67},{""startTime"":830,""x"":846,""y"":304,""analysisTime"":63},{""startTime"":833,""x"":837,""y"":347,""analysisTime"":60},{""startTime"":837,""x"":846,""y"":304,""analysisTime"":56},{""startTime"":904,""x"":896,""y"":304,""analysisTime"":70},{""startTime"":908,""x"":896,""y"":304,""analysisTime"":66},{""startTime"":912,""x"":896,""y"":304,""analysisTime"":62},{""startTime"":916,""x"":896,""y"":304,""analysisTime"":58},{""startTime"":985,""x"":733,""y"":288,""analysisTime"":69},{""startTime"":989,""x"":770,""y"":321,""analysisTime"":65},{""startTime"":993,""x"":770,""y"":321,""analysisTime"":61},{""startTime"":997,""x"":770,""y"":321,""analysisTime"":57},{""startTime"":1065,""x"":727,""y"":232,""analysisTime"":56},{""startTime"":1082,""x"":520,""y"":627,""analysisTime"":63},{""startTime"":1087,""x"":533,""y"":568,""analysisTime"":59},{""startTime"":1091,""x"":520,""y"":627,""analysisTime"":55},{""startTime"":1146,""x"":566,""y"":714,""analysisTime"":19},{""startTime"":1165,""x"":450,""y"":417,""analysisTime"":60},{""startTime"":1170,""x"":450,""y"":417,""analysisTime"":55},{""startTime"":1173,""x"":450,""y"":417,""analysisTime"":52},{""startTime"":1225,""x"":538,""y"":448,""analysisTime"":19},{""startTime"":1244,""x"":570,""y"":268,""analysisTime"":60},{""startTime"":1248,""x"":565,""y"":315,""analysisTime"":56},{""startTime"":1252,""x"":572,""y"":318,""analysisTime"":52},{""startTime"":1304,""x"":599,""y"":292,""analysisTime"":20},{""startTime"":1324,""x"":551,""y"":299,""analysisTime"":57},{""startTime"":1329,""x"":522,""y"":270,""analysisTime"":52},{""startTime"":1333,""x"":587,""y"":238,""analysisTime"":68},{""startTime"":1381,""x"":629,""y"":260,""analysisTime"":24},{""startTime"":1405,""x"":1032,""y"":609,""analysisTime"":72},{""startTime"":1409,""x"":1032,""y"":609,""analysisTime"":68},{""startTime"":1413,""x"":1032,""y"":609,""analysisTime"":64},{""startTime"":1447,""x"":526,""y"":557,""analysisTime"":38},{""startTime"":1491,""x"":784,""y"":486,""analysisTime"":74},{""startTime"":1494,""x"":784,""y"":486,""analysisTime"":71},{""startTime"":1498,""x"":784,""y"":486,""analysisTime"":67},{""startTime"":1537,""x"":860,""y"":482,""analysisTime"":69},{""startTime"":1607,""x"":918,""y"":460,""analysisTime"":62},{""startTime"":1611,""x"":989,""y"":568,""analysisTime"":58},{""startTime"":1614,""x"":918,""y"":460,""analysisTime"":55},{""startTime"":1647,""x"":870,""y"":429,""analysisTime"":39},{""startTime"":1691,""x"":806,""y"":381,""analysisTime"":71},{""startTime"":1695,""x"":806,""y"":381,""analysisTime"":67},{""startTime"":1699,""x"":842,""y"":472,""analysisTime"":63},{""startTime"":1733,""x"":681,""y"":544,""analysisTime"":37},{""startTime"":1774,""x"":262,""y"":338,""analysisTime"":72},{""startTime"":1779,""x"":262,""y"":338,""analysisTime"":67},{""startTime"":1783,""x"":262,""y"":338,""analysisTime"":63},{""startTime"":1816,""x"":417,""y"":388,""analysisTime"":38},{""startTime"":1860,""x"":432,""y"":391,""analysisTime"":69},{""startTime"":1864,""x"":300,""y"":348,""analysisTime"":65},{""startTime"":1868,""x"":432,""y"":391,""analysisTime"":61},{""startTime"":1906,""x"":585,""y"":288,""analysisTime"":39},{""startTime"":1950,""x"":551,""y"":246,""analysisTime"":68},{""startTime"":1954,""x"":547,""y"":297,""analysisTime"":64},{""startTime"":1958,""x"":547,""y"":297,""analysisTime"":72},{""startTime"":1992,""x"":547,""y"":297,""analysisTime"":38},{""startTime"":2030,""x"":433,""y"":293,""analysisTime"":45},{""startTime"":2034,""x"":433,""y"":293,""analysisTime"":41},{""startTime"":2075,""x"":455,""y"":229,""analysisTime"":57},{""startTime"":2079,""x"":455,""y"":229,""analysisTime"":53},{""startTime"":2102,""x"":440,""y"":258,""analysisTime"":51},{""startTime"":2106,""x"":440,""y"":258,""analysisTime"":47},{""startTime"":2157,""x"":395,""y"":230,""analysisTime"":68},{""startTime"":2161,""x"":395,""y"":230,""analysisTime"":64},{""startTime"":2188,""x"":395,""y"":230,""analysisTime"":49},{""startTime"":2192,""x"":395,""y"":230,""analysisTime"":45},{""startTime"":2237,""x"":621,""y"":265,""analysisTime"":45},{""startTime"":2241,""x"":621,""y"":265,""analysisTime"":41}]","./img/birds/bird1.jpeg","./img/birds/bird2.jpeg","{""LstimTop"":226.5,""LstimBot"":544.5,""LstimLeft"":240,""LstimRight"":720,""RstimTop"":226.5,""RstimBot"":544.5,""RstimLeft"":720,""RstimRight"":1200}","{""key"":""j"",""rt"":2290}","","","","","","","","","","","","","","","","","","","","","","","","","",""
"Double-Image-Key","33","67221","0.0-10.0-0.4","","","","","","","","","","","","","","","","","","","","","","","","1440","718","","","","","","","","","","","","","","","[{""startTime"":2282,""x"":473,""y"":286,""analysisTime"":88},{""startTime"":2287,""x"":473,""y"":286,""analysisTime"":83},{""startTime"":0,""x"":473,""y"":286,""analysisTime"":79},{""startTime"":31,""x"":473,""y"":286,""analysisTime"":60},{""startTime"":35,""x"":473,""y"":286,""analysisTime"":56},{""startTime"":91,""x"":488,""y"":276,""analysisTime"":93},{""startTime"":95,""x"":488,""y"":276,""analysisTime"":89},{""startTime"":99,""x"":488,""y"":276,""analysisTime"":85},{""startTime"":103,""x"":488,""y"":276,""analysisTime"":81},{""startTime"":107,""x"":488,""y"":276,""analysisTime"":77},{""startTime"":195,""x"":437,""y"":257,""analysisTime"":89},{""startTime"":199,""x"":437,""y"":257,""analysisTime"":85},{""startTime"":203,""x"":437,""y"":257,""analysisTime"":81},{""startTime"":206,""x"":437,""y"":257,""analysisTime"":78},{""startTime"":210,""x"":437,""y"":257,""analysisTime"":74},{""startTime"":295,""x"":339,""y"":194,""analysisTime"":69},{""startTime"":299,""x"":339,""y"":194,""analysisTime"":80},{""startTime"":303,""x"":339,""y"":194,""analysisTime"":77},{""startTime"":307,""x"":339,""y"":194,""analysisTime"":73},{""startTime"":311,""x"":339,""y"":194,""analysisTime"":69},{""startTime"":386,""x"":578,""y"":280,""analysisTime"":73},{""startTime"":390,""x"":578,""y"":280,""analysisTime"":84},{""startTime"":394,""x"":578,""y"":280,""analysisTime"":80},{""startTime"":398,""x"":578,""y"":280,""analysisTime"":76},{""startTime"":401,""x"":578,""y"":280,""analysisTime"":73},{""startTime"":480,""x"":440,""y"":324,""analysisTime"":89},{""startTime"":485,""x"":440,""y"":324,""analysisTime"":84},{""startTime"":489,""x"":440,""y"":324,""analysisTime"":80},{""startTime"":493,""x"":440,""y"":324,""analysisTime"":76},{""startTime"":496,""x"":440,""y"":324,""analysisTime"":73},{""startTime"":581,""x"":358,""y"":184,""analysisTime"":85},{""startTime"":585,""x"":358,""y"":184,""analysisTime"":81},{""startTime"":589,""x"":358,""y"":184,""analysisTime"":77},{""startTime"":594,""x"":358,""y"":184,""analysisTime"":72},{""startTime"":599,""x"":358,""y"":184,""analysisTime"":67},{""startTime"":677,""x"":969,""y"":218,""analysisTime"":68},{""startTime"":681,""x"":969,""y"":218,""analysisTime"":81},{""startTime"":685,""x"":969,""y"":218,""analysisTime"":77},{""startTime"":690,""x"":969,""y"":218,""analysisTime"":72},{""startTime"":695,""x"":969,""y"":218,""analysisTime"":67},{""startTime"":769,""x"":965,""y"":173,""analysisTime"":72},{""startTime"":774,""x"":965,""y"":173,""analysisTime"":83},{""startTime"":779,""x"":965,""y"":173,""analysisTime"":78},{""startTime"":783,""x"":965,""y"":173,""analysisTime"":74},{""startTime"":787,""x"":965,""y"":173,""analysisTime"":70},{""startTime"":865,""x"":956,""y"":155,""analysisTime"":71},{""startTime"":870,""x"":956,""y"":155,""analysisTime"":83},{""startTime"":875,""x"":931,""y"":144,""analysisTime"":78},{""startTime"":880,""x"":931,""y"":144,""analysisTime"":73},{""startTime"":884,""x"":931,""y"":144,""analysisTime"":69},{""startTime"":960,""x"":992,""y"":158,""analysisTime"":67},{""startTime"":973,""x"":949,""y"":125,""analysisTime"":108},{""startTime"":981,""x"":949,""y"":125,""analysisTime"":100},{""startTime"":989,""x"":949,""y"":125,""analysisTime"":92},{""startTime"":1027,""x"":1015,""y"":100,""analysisTime"":82},{""startTime"":1088,""x"":1015,""y"":100,""analysisTime"":65},{""startTime"":1110,""x"":1015,""y"":100,""analysisTime"":66},{""startTime"":1115,""x"":1015,""y"":100,""analysisTime"":61},{""startTime"":1119,""x"":1015,""y"":100,""analysisTime"":57},{""startTime"":1153,""x"":997,""y"":177,""analysisTime"":39},{""startTime"":1192,""x"":1044,""y"":173,""analysisTime"":55},{""startTime"":1208,""x"":963,""y"":166,""analysisTime"":66},{""startTime"":1212,""x"":963,""y"":166,""analysisTime"":62},{""startTime"":1216,""x"":963,""y"":166,""analysisTime"":58}]","./img/birds/bird5.jpeg","./img/birds/bird6.jpeg","{""LstimTop"":226.5,""LstimBot"":544.5,""LstimLeft"":240,""LstimRight"":720,""RstimTop"":226.5,""RstimBot"":544.5,""RstimLeft"":720,""RstimRight"":1200}","{""key"":""j"",""rt"":1247}","","","","","","","","","","","","","","","","","","","","","","","","","",""
"html-keyboard-response","34","68281","0.0-11.0","","","","","","","","","","","","","","","","","1060","DOUBLE-VISION-KEY trials are completed. <p>The next set of trials will demonstrate the DOUBLE-IMAGE-DURATION trial type.</p><p>Trials will end after 1000ms. You do not need to provide a key or gaze response.</p> <p>To proceed to the trials, press the [space] key.</p>"," ","","","","","","","","","","","","","","","","","","","","","","","","","","","","","","","","","","","","","","","","","","","","","","","","","","",""
"Double-Image-Duration","35","69341","0.0-12.0-0.0","","","","","","","","","","","","","","","","","","","","","","","","1440","718","","","","","","","","","","","","","","","","","","","","[{""startTime"":0,""x"":726,""y"":236,""analysisTime"":40},{""startTime"":51,""x"":682,""y"":258,""analysisTime"":39},{""startTime"":101,""x"":895,""y"":279,""analysisTime"":27},{""startTime"":139,""x"":863,""y"":281,""analysisTime"":21},{""startTime"":172,""x"":758,""y"":211,""analysisTime"":22},{""startTime"":206,""x"":649,""y"":279,""analysisTime"":33},{""startTime"":250,""x"":677,""y"":258,""analysisTime"":26},{""startTime"":287,""x"":606,""y"":243,""analysisTime"":20},{""startTime"":319,""x"":791,""y"":286,""analysisTime"":20},{""startTime"":357,""x"":858,""y"":284,""analysisTime"":37},{""startTime"":404,""x"":843,""y"":282,""analysisTime"":39},{""startTime"":455,""x"":766,""y"":313,""analysisTime"":31},{""startTime"":496,""x"":766,""y"":313,""analysisTime"":26},{""startTime"":537,""x"":717,""y"":316,""analysisTime"":38},{""startTime"":586,""x"":612,""y"":273,""analysisTime"":26},{""startTime"":624,""x"":591,""y"":270,""analysisTime"":34},{""startTime"":669,""x"":504,""y"":236,""analysisTime"":26},{""startTime"":706,""x"":458,""y"":278,""analysisTime"":34},{""startTime"":751,""x"":617,""y"":254,""analysisTime"":25},{""startTime"":788,""x"":529,""y"":286,""analysisTime"":21},{""startTime"":822,""x"":502,""y"":240,""analysisTime"":38},{""startTime"":871,""x"":597,""y"":178,""analysisTime"":39},{""startTime"":921,""x"":522,""y"":204,""analysisTime"":37},{""startTime"":968,""x"":633,""y"":251,""analysisTime"":41},{""startTime"":1019,""x"":588,""y"":218,""analysisTime"":40}]","./img/birds/bird1.jpeg","./img/birds/bird2.jpeg","544.5","255","705","226.5","544.5","705","1185","226.5","","","","","","","","","","","","","","",""
"Double-Image-Duration","36","70379","0.0-12.0-0.1","","","","","","","","","","","","","","","","","","","","","","","","1440","718","","","","","","","","","","","","","","","","","","","","[{""startTime"":0,""x"":588,""y"":218,""analysisTime"":19},{""startTime"":30,""x"":606,""y"":174,""analysisTime"":37},{""startTime"":87,""x"":634,""y"":213,""analysisTime"":50},{""startTime"":148,""x"":847,""y"":249,""analysisTime"":35},{""startTime"":194,""x"":964,""y"":241,""analysisTime"":38},{""startTime"":242,""x"":935,""y"":174,""analysisTime"":38},{""startTime"":291,""x"":953,""y"":184,""analysisTime"":38},{""startTime"":340,""x"":956,""y"":205,""analysisTime"":39},{""startTime"":389,""x"":798,""y"":232,""analysisTime"":40},{""startTime"":439,""x"":828,""y"":238,""analysisTime"":38},{""startTime"":487,""x"":787,""y"":156,""analysisTime"":27},{""startTime"":529,""x"":867,""y"":144,""analysisTime"":39},{""startTime"":578,""x"":875,""y"":211,""analysisTime"":39},{""startTime"":628,""x"":852,""y"":197,""analysisTime"":38},{""startTime"":676,""x"":829,""y"":178,""analysisTime"":26},{""startTime"":713,""x"":835,""y"":157,""analysisTime"":33},{""startTime"":757,""x"":823,""y"":177,""analysisTime"":26},{""startTime"":794,""x"":884,""y"":166,""analysisTime"":34},{""startTime"":838,""x"":817,""y"":163,""analysisTime"":38},{""startTime"":887,""x"":878,""y"":218,""analysisTime"":26},{""startTime"":931,""x"":886,""y"":209,""analysisTime"":37},{""startTime"":979,""x"":887,""y"":228,""analysisTime"":26},{""startTime"":1017,""x"":842,""y"":263,""analysisTime"":20}]","./img/birds/bird9.jpeg","./img/birds/bird10.jpeg","544.5","255","705","226.5","544.5","705","1185","226.5","","","","","","","","","","","","","","",""
"Double-Image-Duration","37","71452","0.0-12.0-0.2","","","","","","","","","","","","","","","","","","","","","","","","1440","718","","","","","","","","","","","","","","","","","","","","[{""startTime"":0,""x"":774,""y"":270,""analysisTime"":30},{""startTime"":41,""x"":805,""y"":317,""analysisTime"":38},{""startTime"":89,""x"":931,""y"":273,""analysisTime"":26},{""startTime"":127,""x"":886,""y"":294,""analysisTime"":21},{""startTime"":159,""x"":914,""y"":247,""analysisTime"":20},{""startTime"":190,""x"":923,""y"":306,""analysisTime"":33},{""startTime"":234,""x"":895,""y"":246,""analysisTime"":26},{""startTime"":274,""x"":899,""y"":239,""analysisTime"":39},{""startTime"":323,""x"":983,""y"":225,""analysisTime"":40},{""startTime"":373,""x"":889,""y"":249,""analysisTime"":38},{""startTime"":422,""x"":979,""y"":243,""analysisTime"":38},{""startTime"":470,""x"":770,""y"":726,""analysisTime"":38},{""startTime"":518,""x"":1196,""y"":583,""analysisTime"":39},{""startTime"":567,""x"":690,""y"":545,""analysisTime"":40},{""startTime"":618,""x"":707,""y"":588,""analysisTime"":25},{""startTime"":657,""x"":271,""y"":463,""analysisTime"":38},{""startTime"":705,""x"":443,""y"":371,""analysisTime"":39},{""startTime"":755,""x"":341,""y"":363,""analysisTime"":36},{""startTime"":802,""x"":452,""y"":341,""analysisTime"":26},{""startTime"":840,""x"":632,""y"":529,""analysisTime"":39},{""startTime"":890,""x"":599,""y"":639,""analysisTime"":37},{""startTime"":937,""x"":446,""y"":503,""analysisTime"":39},{""startTime"":986,""x"":365,""y"":358,""analysisTime"":38},{""startTime"":1035,""x"":348,""y"":331,""analysisTime"":37}]","./img/birds/bird3.jpeg","./img/birds/bird4.jpeg","544.5","255","705","226.5","544.5","705","1185","226.5","","","","","","","","","","","","","","",""
"Double-Image-Duration","38","72491","0.0-12.0-0.3","","","","","","","","","","","","","","","","","","","","","","","","1440","718","","","","","","","","","","","","","","","","","","","","[{""startTime"":0,""x"":374,""y"":343,""analysisTime"":33},{""startTime"":43,""x"":275,""y"":336,""analysisTime"":28},{""startTime"":86,""x"":225,""y"":376,""analysisTime"":40},{""startTime"":137,""x"":305,""y"":361,""analysisTime"":38},{""startTime"":187,""x"":323,""y"":376,""analysisTime"":38},{""startTime"":235,""x"":300,""y"":334,""analysisTime"":39},{""startTime"":285,""x"":393,""y"":269,""analysisTime"":37},{""startTime"":333,""x"":434,""y"":258,""analysisTime"":38},{""startTime"":382,""x"":362,""y"":281,""analysisTime"":38},{""startTime"":430,""x"":359,""y"":283,""analysisTime"":39},{""startTime"":480,""x"":542,""y"":321,""analysisTime"":38},{""startTime"":528,""x"":614,""y"":272,""analysisTime"":39},{""startTime"":578,""x"":874,""y"":579,""analysisTime"":39},{""startTime"":627,""x"":879,""y"":636,""analysisTime"":39},{""startTime"":677,""x"":879,""y"":636,""analysisTime"":25},{""startTime"":717,""x"":935,""y"":480,""analysisTime"":39},{""startTime"":767,""x"":850,""y"":432,""analysisTime"":40},{""startTime"":818,""x"":856,""y"":470,""analysisTime"":37},{""startTime"":866,""x"":856,""y"":460,""analysisTime"":38},{""startTime"":915,""x"":796,""y"":596,""analysisTime"":38},{""startTime"":964,""x"":973,""y"":607,""analysisTime"":38},{""startTime"":1014,""x"":881,""y"":628,""analysisTime"":24}]","./img/birds/bird7.jpeg","./img/birds/bird8.jpeg","544.5","255","705","226.5","544.5","705","1185","226.5","","","","","","","","","","","","","","",""
"Double-Image-Duration","39","73560","0.0-12.0-0.4","","","","","","","","","","","","","","","","","","","","","","","","1440","718","","","","","","","","","","","","","","","","","","","","[{""startTime"":0,""x"":815,""y"":541,""analysisTime"":29},{""startTime"":44,""x"":1195,""y"":648,""analysisTime"":39},{""startTime"":93,""x"":1074,""y"":594,""analysisTime"":39},{""startTime"":143,""x"":979,""y"":589,""analysisTime"":37},{""startTime"":191,""x"":989,""y"":501,""analysisTime"":38},{""startTime"":239,""x"":1012,""y"":690,""analysisTime"":40},{""startTime"":289,""x"":860,""y"":638,""analysisTime"":39},{""startTime"":339,""x"":887,""y"":610,""analysisTime"":25},{""startTime"":379,""x"":803,""y"":539,""analysisTime"":40},{""startTime"":429,""x"":895,""y"":546,""analysisTime"":26},{""startTime"":467,""x"":547,""y"":350,""analysisTime"":34},{""startTime"":511,""x"":554,""y"":315,""analysisTime"":39},{""startTime"":562,""x"":470,""y"":375,""analysisTime"":30},{""startTime"":602,""x"":516,""y"":331,""analysisTime"":26},{""startTime"":646,""x"":534,""y"":342,""analysisTime"":39},{""startTime"":695,""x"":657,""y"":255,""analysisTime"":39},{""startTime"":745,""x"":639,""y"":257,""analysisTime"":39},{""startTime"":794,""x"":579,""y"":260,""analysisTime"":39},{""startTime"":843,""x"":607,""y"":224,""analysisTime"":39},{""startTime"":893,""x"":700,""y"":256,""analysisTime"":31},{""startTime"":934,""x"":621,""y"":278,""analysisTime"":27},{""startTime"":978,""x"":642,""y"":260,""analysisTime"":40},{""startTime"":1028,""x"":679,""y"":253,""analysisTime"":40}]","./img/birds/bird5.jpeg","./img/birds/bird6.jpeg","544.5","255","705","226.5","544.5","705","1185","226.5","","","","","","","","","","","","","","",""
"html-keyboard-response","40","74259","0.0-13.0","","","","","","","","","","","","","","","","","700","DOUBLE-VISION-DURATION trials are completed. <p>The next set of trials will demonstrate the <b>SINGLE</b>-IMAGE-KEY trial type.</p><p>To end a trial, you will need to provide a key response. Use the [spacebar] key to end a trial.</p> <p>To proceed to the trials, press the [space] key.</p>"," ","","","","","","","","","","","","","","","","","","","","","","","","","","","","","","","","","","","","","","","","","","","","","","","","","","",""
"Single-Image-Key","41","75719","0.0-14.0-0.0","","","","","","","","","","","","","","","","","","./img/birds/bird5.jpeg","","","","","","1440","718","","","","","","","","","","","","","","","","","","","","","","","","","","","","","","","[{""startTime"":0,""x"":840,""y"":338,""analysisTime"":32},{""startTime"":43,""x"":842,""y"":302,""analysisTime"":38},{""startTime"":91,""x"":775,""y"":323,""analysisTime"":39},{""startTime"":140,""x"":797,""y"":373,""analysisTime"":38},{""startTime"":188,""x"":764,""y"":414,""analysisTime"":26},{""startTime"":225,""x"":829,""y"":391,""analysisTime"":39},{""startTime"":276,""x"":772,""y"":272,""analysisTime"":37},{""startTime"":325,""x"":728,""y"":293,""analysisTime"":37},{""startTime"":372,""x"":701,""y"":232,""analysisTime"":26},{""startTime"":409,""x"":805,""y"":208,""analysisTime"":34},{""startTime"":455,""x"":842,""y"":301,""analysisTime"":37},{""startTime"":503,""x"":786,""y"":265,""analysisTime"":25},{""startTime"":544,""x"":710,""y"":305,""analysisTime"":38},{""startTime"":592,""x"":794,""y"":292,""analysisTime"":39},{""startTime"":642,""x"":694,""y"":285,""analysisTime"":37},{""startTime"":690,""x"":739,""y"":313,""analysisTime"":38},{""startTime"":738,""x"":741,""y"":287,""analysisTime"":26},{""startTime"":776,""x"":818,""y"":205,""analysisTime"":38},{""startTime"":825,""x"":709,""y"":314,""analysisTime"":38},{""startTime"":874,""x"":820,""y"":380,""analysisTime"":37},{""startTime"":921,""x"":861,""y"":283,""analysisTime"":26},{""startTime"":960,""x"":797,""y"":345,""analysisTime"":39},{""startTime"":1011,""x"":723,""y"":304,""analysisTime"":30},{""startTime"":1051,""x"":719,""y"":238,""analysisTime"":26},{""startTime"":1094,""x"":852,""y"":201,""analysisTime"":39},{""startTime"":1143,""x"":813,""y"":256,""analysisTime"":39},{""startTime"":1193,""x"":765,""y"":297,""analysisTime"":39},{""startTime"":1242,""x"":476,""y"":624,""analysisTime"":38},{""startTime"":1290,""x"":901,""y"":514,""analysisTime"":39},{""startTime"":1341,""x"":648,""y"":571,""analysisTime"":37},{""startTime"":1388,""x"":818,""y"":692,""analysisTime"":39}]","1126.5","226.5","495","1095","true","false","","","","","","","",""
"Single-Image-Key","42","77271","0.0-14.0-0.1","","","","","","","","","","","","","","","","","","./img/birds/bird6.jpeg","","","","","","1440","718","","","","","","","","","","","","","","","","","","","","","","","","","","","","","","","[{""startTime"":1438,""x"":858,""y"":703,""analysisTime"":51},{""startTime"":0,""x"":858,""y"":703,""analysisTime"":38},{""startTime"":44,""x"":745,""y"":690,""analysisTime"":42},{""startTime"":48,""x"":745,""y"":690,""analysisTime"":38},{""startTime"":100,""x"":1013,""y"":606,""analysisTime"":42},{""startTime"":104,""x"":906,""y"":599,""analysisTime"":38},{""startTime"":153,""x"":870,""y"":503,""analysisTime"":39},{""startTime"":157,""x"":870,""y"":503,""analysisTime"":35},{""startTime"":204,""x"":922,""y"":514,""analysisTime"":36},{""startTime"":208,""x"":922,""y"":514,""analysisTime"":32},{""startTime"":251,""x"":842,""y"":485,""analysisTime"":44},{""startTime"":259,""x"":842,""y"":485,""analysisTime"":36},{""startTime"":307,""x"":975,""y"":468,""analysisTime"":41},{""startTime"":311,""x"":975,""y"":468,""analysisTime"":37},{""startTime"":359,""x"":939,""y"":489,""analysisTime"":37},{""startTime"":363,""x"":939,""y"":489,""analysisTime"":33},{""startTime"":407,""x"":928,""y"":483,""analysisTime"":37},{""startTime"":411,""x"":928,""y"":483,""analysisTime"":33},{""startTime"":455,""x"":980,""y"":563,""analysisTime"":38},{""startTime"":459,""x"":980,""y"":563,""analysisTime"":34},{""startTime"":504,""x"":963,""y"":514,""analysisTime"":36},{""startTime"":508,""x"":963,""y"":514,""analysisTime"":32},{""startTime"":551,""x"":838,""y"":595,""analysisTime"":42},{""startTime"":555,""x"":838,""y"":595,""analysisTime"":38},{""startTime"":605,""x"":618,""y"":570,""analysisTime"":37},{""startTime"":609,""x"":737,""y"":721,""analysisTime"":33},{""startTime"":654,""x"":683,""y"":571,""analysisTime"":39},{""startTime"":657,""x"":683,""y"":571,""analysisTime"":36},{""startTime"":705,""x"":775,""y"":620,""analysisTime"":37},{""startTime"":708,""x"":775,""y"":620,""analysisTime"":34},{""startTime"":752,""x"":791,""y"":694,""analysisTime"":41},{""startTime"":756,""x"":850,""y"":708,""analysisTime"":37},{""startTime"":804,""x"":1562,""y"":566,""analysisTime"":38},{""startTime"":808,""x"":1570,""y"":530,""analysisTime"":34},{""startTime"":853,""x"":826,""y"":622,""analysisTime"":40},{""startTime"":857,""x"":826,""y"":622,""analysisTime"":36},{""startTime"":904,""x"":719,""y"":587,""analysisTime"":37},{""startTime"":907,""x"":716,""y"":574,""analysisTime"":34},{""startTime"":951,""x"":838,""y"":470,""analysisTime"":42},{""startTime"":955,""x"":838,""y"":470,""analysisTime"":38},{""startTime"":1003,""x"":740,""y"":314,""analysisTime"":39},{""startTime"":1007,""x"":764,""y"":374,""analysisTime"":35},{""startTime"":1052,""x"":726,""y"":330,""analysisTime"":41},{""startTime"":1056,""x"":637,""y"":278,""analysisTime"":37},{""startTime"":1104,""x"":690,""y"":253,""analysisTime"":38},{""startTime"":1108,""x"":674,""y"":275,""analysisTime"":34},{""startTime"":1153,""x"":693,""y"":258,""analysisTime"":40},{""startTime"":1157,""x"":693,""y"":258,""analysisTime"":36},{""startTime"":1204,""x"":674,""y"":218,""analysisTime"":38},{""startTime"":1208,""x"":705,""y"":243,""analysisTime"":34},{""startTime"":1254,""x"":728,""y"":254,""analysisTime"":37},{""startTime"":1258,""x"":728,""y"":254,""analysisTime"":33},{""startTime"":1302,""x"":678,""y"":251,""analysisTime"":40},{""startTime"":1306,""x"":678,""y"":251,""analysisTime"":36},{""startTime"":1353,""x"":823,""y"":334,""analysisTime"":40},{""startTime"":1358,""x"":823,""y"":334,""analysisTime"":35},{""startTime"":1404,""x"":783,""y"":321,""analysisTime"":39},{""startTime"":1408,""x"":783,""y"":321,""analysisTime"":35},{""startTime"":1454,""x"":795,""y"":296,""analysisTime"":37},{""startTime"":1458,""x"":795,""y"":296,""analysisTime"":33},{""startTime"":1502,""x"":721,""y"":263,""analysisTime"":40},{""startTime"":1505,""x"":721,""y"":263,""analysisTime"":37}]","1126.5","226.5","495","1095","true","false","","","","","","","",""
"Single-Image-Key","43","78301","0.0-14.0-0.2","","","","","","","","","","","","","","","","","","./img/birds/bird2.jpeg","","","","","","1440","718","","","","","","","","","","","","","","","","","","","","","","","","","","","","","","","[{""startTime"":0,""x"":759,""y"":271,""analysisTime"":57},{""startTime"":4,""x"":759,""y"":271,""analysisTime"":53},{""startTime"":8,""x"":759,""y"":271,""analysisTime"":49},{""startTime"":68,""x"":769,""y"":240,""analysisTime"":54},{""startTime"":73,""x"":773,""y"":305,""analysisTime"":49},{""startTime"":77,""x"":773,""y"":305,""analysisTime"":45},{""startTime"":133,""x"":773,""y"":290,""analysisTime"":64},{""startTime"":137,""x"":773,""y"":290,""analysisTime"":60},{""startTime"":140,""x"":773,""y"":290,""analysisTime"":57},{""startTime"":208,""x"":717,""y"":245,""analysisTime"":58},{""startTime"":211,""x"":717,""y"":245,""analysisTime"":55},{""startTime"":215,""x"":717,""y"":245,""analysisTime"":51},{""startTime"":278,""x"":740,""y"":286,""analysisTime"":52},{""startTime"":282,""x"":740,""y"":286,""analysisTime"":48},{""startTime"":285,""x"":740,""y"":286,""analysisTime"":45},{""startTime"":341,""x"":688,""y"":284,""analysisTime"":52},{""startTime"":345,""x"":688,""y"":284,""analysisTime"":48},{""startTime"":349,""x"":688,""y"":284,""analysisTime"":44},{""startTime"":405,""x"":705,""y"":238,""analysisTime"":51},{""startTime"":409,""x"":705,""y"":238,""analysisTime"":47},{""startTime"":413,""x"":705,""y"":238,""analysisTime"":43},{""startTime"":468,""x"":790,""y"":350,""analysisTime"":51},{""startTime"":472,""x"":790,""y"":350,""analysisTime"":47},{""startTime"":476,""x"":749,""y"":342,""analysisTime"":43},{""startTime"":531,""x"":703,""y"":269,""analysisTime"":51},{""startTime"":535,""x"":656,""y"":239,""analysisTime"":47},{""startTime"":540,""x"":656,""y"":239,""analysisTime"":42},{""startTime"":594,""x"":795,""y"":606,""analysisTime"":50},{""startTime"":598,""x"":732,""y"":625,""analysisTime"":46},{""startTime"":603,""x"":732,""y"":625,""analysisTime"":41},{""startTime"":656,""x"":734,""y"":574,""analysisTime"":52},{""startTime"":660,""x"":729,""y"":561,""analysisTime"":48},{""startTime"":665,""x"":729,""y"":561,""analysisTime"":43},{""startTime"":720,""x"":547,""y"":712,""analysisTime"":53},{""startTime"":725,""x"":547,""y"":712,""analysisTime"":48},{""startTime"":729,""x"":536,""y"":716,""analysisTime"":44},{""startTime"":784,""x"":525,""y"":698,""analysisTime"":62},{""startTime"":788,""x"":549,""y"":678,""analysisTime"":58},{""startTime"":792,""x"":458,""y"":617,""analysisTime"":54},{""startTime"":858,""x"":415,""y"":653,""analysisTime"":56},{""startTime"":865,""x"":603,""y"":668,""analysisTime"":49},{""startTime"":869,""x"":415,""y"":653,""analysisTime"":45},{""startTime"":925,""x"":480,""y"":585,""analysisTime"":53},{""startTime"":929,""x"":480,""y"":585,""analysisTime"":49},{""startTime"":933,""x"":480,""y"":585,""analysisTime"":45}]","1126.5","226.5","495","1095","true","false","","","","","","","",""
"Single-Image-Key","44","79465","0.0-14.0-0.3","","","","","","","","","","","","","","","","","","./img/birds/bird3.jpeg","","","","","","1440","718","","","","","","","","","","","","","","","","","","","","","","","","","","","","","","","[{""startTime"":989,""x"":346,""y"":648,""analysisTime"":78},{""startTime"":994,""x"":346,""y"":648,""analysisTime"":73},{""startTime"":998,""x"":580,""y"":588,""analysisTime"":69},{""startTime"":0,""x"":346,""y"":648,""analysisTime"":45},{""startTime"":51,""x"":535,""y"":547,""analysisTime"":70},{""startTime"":56,""x"":535,""y"":547,""analysisTime"":65},{""startTime"":60,""x"":535,""y"":547,""analysisTime"":61},{""startTime"":97,""x"":713,""y"":598,""analysisTime"":41},{""startTime"":143,""x"":699,""y"":596,""analysisTime"":69},{""startTime"":162,""x"":689,""y"":608,""analysisTime"":62},{""startTime"":166,""x"":689,""y"":608,""analysisTime"":58},{""startTime"":170,""x"":689,""y"":608,""analysisTime"":54},{""startTime"":230,""x"":716,""y"":539,""analysisTime"":73},{""startTime"":234,""x"":716,""y"":539,""analysisTime"":69},{""startTime"":237,""x"":716,""y"":539,""analysisTime"":66},{""startTime"":241,""x"":716,""y"":539,""analysisTime"":62},{""startTime"":314,""x"":871,""y"":435,""analysisTime"":57},{""startTime"":318,""x"":886,""y"":413,""analysisTime"":64},{""startTime"":322,""x"":886,""y"":413,""analysisTime"":60},{""startTime"":326,""x"":886,""y"":413,""analysisTime"":56},{""startTime"":389,""x"":728,""y"":356,""analysisTime"":72},{""startTime"":393,""x"":728,""y"":356,""analysisTime"":68},{""startTime"":396,""x"":728,""y"":356,""analysisTime"":65},{""startTime"":400,""x"":728,""y"":356,""analysisTime"":61},{""startTime"":472,""x"":717,""y"":367,""analysisTime"":57},{""startTime"":476,""x"":717,""y"":367,""analysisTime"":65},{""startTime"":480,""x"":717,""y"":367,""analysisTime"":61},{""startTime"":484,""x"":717,""y"":367,""analysisTime"":57},{""startTime"":547,""x"":761,""y"":340,""analysisTime"":74},{""startTime"":552,""x"":761,""y"":340,""analysisTime"":69},{""startTime"":556,""x"":761,""y"":340,""analysisTime"":65},{""startTime"":560,""x"":761,""y"":340,""analysisTime"":61},{""startTime"":632,""x"":668,""y"":347,""analysisTime"":69},{""startTime"":636,""x"":668,""y"":347,""analysisTime"":65},{""startTime"":641,""x"":668,""y"":347,""analysisTime"":60},{""startTime"":645,""x"":668,""y"":347,""analysisTime"":56},{""startTime"":713,""x"":773,""y"":543,""analysisTime"":68},{""startTime"":717,""x"":806,""y"":606,""analysisTime"":64},{""startTime"":721,""x"":824,""y"":560,""analysisTime"":60},{""startTime"":724,""x"":780,""y"":517,""analysisTime"":57},{""startTime"":793,""x"":747,""y"":720,""analysisTime"":68},{""startTime"":797,""x"":747,""y"":720,""analysisTime"":64},{""startTime"":801,""x"":842,""y"":712,""analysisTime"":60},{""startTime"":804,""x"":842,""y"":712,""analysisTime"":57},{""startTime"":872,""x"":923,""y"":736,""analysisTime"":57},{""startTime"":876,""x"":923,""y"":736,""analysisTime"":65},{""startTime"":880,""x"":923,""y"":736,""analysisTime"":61},{""startTime"":884,""x"":923,""y"":736,""analysisTime"":57},{""startTime"":948,""x"":952,""y"":632,""analysisTime"":72},{""startTime"":952,""x"":952,""y"":632,""analysisTime"":68},{""startTime"":956,""x"":936,""y"":620,""analysisTime"":64},{""startTime"":959,""x"":936,""y"":620,""analysisTime"":61},{""startTime"":1032,""x"":873,""y"":616,""analysisTime"":68},{""startTime"":1036,""x"":873,""y"":616,""analysisTime"":64},{""startTime"":1040,""x"":873,""y"":616,""analysisTime"":60},{""startTime"":1044,""x"":873,""y"":616,""analysisTime"":56}]","1126.5","226.5","495","1095","true","false","","","","","","","",""
"Single-Image-Key","45","80196","0.0-14.0-0.4","","","","","","","","","","","","","","","","","","./img/birds/bird4.jpeg","","","","","","1440","718","","","","","","","","","","","","","","","","","","","","","","","","","","","","","","","[{""startTime"":1112,""x"":832,""y"":606,""analysisTime"":94},{""startTime"":1117,""x"":847,""y"":615,""analysisTime"":89},{""startTime"":1120,""x"":847,""y"":615,""analysisTime"":86},{""startTime"":1124,""x"":847,""y"":615,""analysisTime"":82},{""startTime"":0,""x"":847,""y"":615,""analysisTime"":49},{""startTime"":52,""x"":786,""y"":584,""analysisTime"":62},{""startTime"":56,""x"":842,""y"":637,""analysisTime"":87},{""startTime"":60,""x"":842,""y"":637,""analysisTime"":83},{""startTime"":63,""x"":842,""y"":637,""analysisTime"":80},{""startTime"":68,""x"":842,""y"":637,""analysisTime"":75},{""startTime"":144,""x"":793,""y"":632,""analysisTime"":19},{""startTime"":163,""x"":812,""y"":595,""analysisTime"":69},{""startTime"":168,""x"":812,""y"":595,""analysisTime"":64},{""startTime"":172,""x"":812,""y"":595,""analysisTime"":84},{""startTime"":206,""x"":878,""y"":616,""analysisTime"":50},{""startTime"":232,""x"":878,""y"":616,""analysisTime"":28},{""startTime"":260,""x"":1001,""y"":654,""analysisTime"":69},{""startTime"":264,""x"":1001,""y"":654,""analysisTime"":65},{""startTime"":290,""x"":1001,""y"":654,""analysisTime"":63},{""startTime"":294,""x"":1001,""y"":654,""analysisTime"":59},{""startTime"":329,""x"":1001,""y"":654,""analysisTime"":28},{""startTime"":357,""x"":807,""y"":426,""analysisTime"":75},{""startTime"":361,""x"":807,""y"":426,""analysisTime"":71},{""startTime"":387,""x"":799,""y"":445,""analysisTime"":137},{""startTime"":397,""x"":799,""y"":445,""analysisTime"":127},{""startTime"":432,""x"":859,""y"":346,""analysisTime"":134},{""startTime"":531,""x"":775,""y"":328,""analysisTime"":69},{""startTime"":534,""x"":775,""y"":328,""analysisTime"":66},{""startTime"":566,""x"":775,""y"":328,""analysisTime"":53},{""startTime"":571,""x"":775,""y"":328,""analysisTime"":48},{""startTime"":600,""x"":832,""y"":259,""analysisTime"":36},{""startTime"":636,""x"":860,""y"":239,""analysisTime"":69},{""startTime"":640,""x"":822,""y"":264,""analysisTime"":65},{""startTime"":663,""x"":866,""y"":262,""analysisTime"":67},{""startTime"":667,""x"":866,""y"":262,""analysisTime"":63},{""startTime"":671,""x"":866,""y"":262,""analysisTime"":59}]","1126.5","226.5","495","1095","true","false","","","","","","","",""
"html-keyboard-response","46","81107","0.0-15.0","","","","","","","","","","","","","","","","","911","SINGLE-VISION-KEY trials are completed. <p>The next set of trials will demonstrate the SINGLE-IMAGE-DURATION trial type.</p><p>Trials will end after 1000ms. You do not need to provide a key or gaze response.</p> <p>To proceed to the trials, press the [space] key.</p>"," ","","","","","","","","","","","","","","","","","","","","","","","","","","","","","","","","","","","","","","","","","","","","","","","","","","",""
"Single-Image-Duration","47","82176","0.0-16.0-0.0","","","","","","","","","","","","","","","","","","","","","","","","1440","718","","","","","","","","","","","","","","","","","","","","","","","","","","","","","","","","","","","","","","[{""startTime"":0,""x"":771,""y"":390,""analysisTime"":23},{""startTime"":34,""x"":826,""y"":373,""analysisTime"":37},{""startTime"":81,""x"":909,""y"":346,""analysisTime"":28},{""startTime"":120,""x"":871,""y"":329,""analysisTime"":35},{""startTime"":166,""x"":856,""y"":306,""analysisTime"":38},{""startTime"":214,""x"":784,""y"":410,""analysisTime"":39},{""startTime"":265,""x"":648,""y"":303,""analysisTime"":37},{""startTime"":312,""x"":660,""y"":319,""analysisTime"":38},{""startTime"":360,""x"":689,""y"":321,""analysisTime"":39},{""startTime"":413,""x"":679,""y"":252,""analysisTime"":39},{""startTime"":463,""x"":606,""y"":220,""analysisTime"":37},{""startTime"":510,""x"":687,""y"":248,""analysisTime"":39},{""startTime"":560,""x"":694,""y"":263,""analysisTime"":38},{""startTime"":608,""x"":600,""y"":159,""analysisTime"":39},{""startTime"":658,""x"":594,""y"":204,""analysisTime"":37},{""startTime"":705,""x"":732,""y"":228,""analysisTime"":26},{""startTime"":746,""x"":610,""y"":181,""analysisTime"":39},{""startTime"":795,""x"":764,""y"":167,""analysisTime"":39},{""startTime"":846,""x"":688,""y"":314,""analysisTime"":30},{""startTime"":887,""x"":929,""y"":653,""analysisTime"":26},{""startTime"":930,""x"":825,""y"":339,""analysisTime"":39},{""startTime"":979,""x"":688,""y"":291,""analysisTime"":39},{""startTime"":1028,""x"":790,""y"":353,""analysisTime"":40}]","1126.5","226.5","495","1095","./img/birds/bird6.jpeg","true","false"
"Single-Image-Duration","48","83238","0.0-16.0-0.1","","","","","","","","","","","","","","","","","","","","","","","","1440","718","","","","","","","","","","","","","","","","","","","","","","","","","","","","","","","","","","","","","","[{""startTime"":0,""x"":771,""y"":398,""analysisTime"":20},{""startTime"":35,""x"":641,""y"":364,""analysisTime"":32},{""startTime"":77,""x"":796,""y"":373,""analysisTime"":39},{""startTime"":127,""x"":801,""y"":390,""analysisTime"":37},{""startTime"":182,""x"":737,""y"":379,""analysisTime"":24},{""startTime"":221,""x"":851,""y"":422,""analysisTime"":47},{""startTime"":279,""x"":709,""y"":337,""analysisTime"":35},{""startTime"":324,""x"":704,""y"":439,""analysisTime"":38},{""startTime"":372,""x"":741,""y"":463,""analysisTime"":26},{""startTime"":411,""x"":812,""y"":452,""analysisTime"":38},{""startTime"":460,""x"":760,""y"":420,""analysisTime"":39},{""startTime"":509,""x"":694,""y"":447,""analysisTime"":38},{""startTime"":558,""x"":693,""y"":420,""analysisTime"":38},{""startTime"":606,""x"":650,""y"":425,""analysisTime"":39},{""startTime"":656,""x"":685,""y"":428,""analysisTime"":37},{""startTime"":704,""x"":680,""y"":430,""analysisTime"":26},{""startTime"":745,""x"":714,""y"":436,""analysisTime"":39},{""startTime"":795,""x"":805,""y"":412,""analysisTime"":38},{""startTime"":844,""x"":822,""y"":389,""analysisTime"":39},{""startTime"":894,""x"":822,""y"":389,""analysisTime"":25},{""startTime"":930,""x"":811,""y"":435,""analysisTime"":35},{""startTime"":975,""x"":806,""y"":413,""analysisTime"":39},{""startTime"":1025,""x"":785,""y"":404,""analysisTime"":37}]","1126.5","226.5","495","1095","./img/birds/bird3.jpeg","true","false"
