"trial_type","trial_index","time_elapsed","internal_node_id","width","height","webaudio","browser","browser_version","mobile","os","fullscreen","vsync_rate","webcam","microphone","success","timeout","failed_images","failed_audio","failed_video","rt","stimulus","response","calibrationAccuracy","currGazeTime","singleCrossData","totalGazeTime","screenX","screenY","gazerDatasingleDotDuration","stimBot","stimTop","stimLeft","stimRight","webgazerError","stimLocation","trialLength","gazerDatadoubleImageGaze","stimLeftGaze","stimRightGaze","leftStimDims","rightStimDims","currGazeObject","gazerDatadoubleImageKey","stimulusOne","stimulusTwo","stimuliAreas","keyResp","gazerDatadoubleImageDuration","stimulusLeft","stimulusRight","LstimBot","LstimLeft","LstimRight","LstimTop","RstimBot","RstimLeft","RstimRight","RstimTop","gazerDatasingleImageKey","keyStimBot","keyStimTop","keyStimLeft","keyStimRight","upright","singleImageKeyWebgazerError","gazerDatasingleImageDuration","durationStimBot","durationStimTop","durationStimLeft","durationStimRight","singleImageDurationStimulus","singleImageDurationUpright","singleImageDurationWebgazerError"
"pavlovia","0","2778","0.0-0.0","","","","","","","","","","","","","","","","","","","","","","","","","","","","","","","","","","","","","","","","","","","","","","","","","","","","","","","","","","","","","","","","","","","","","",""
"browser-check","1","3788","0.0-1.0","1440","718","true","chrome","114.0.0","false","Mac OS","true","59.91","true","true","","","","","","","","","","","","","","","","","","","","","","","","","","","","","","","","","","","","","","","","","","","","","","","","","","","","","","","","","","",""
"preload","2","3796","0.0-2.0","","","","","","","","","","","","true","false","[]","[]","[]","","","","","","","","","","","","","","","","","","","","","","","","","","","","","","","","","","","","","","","","","","","","","","","","","","","","","",""
"html-keyboard-response","3","4829","0.0-3.0","","","","","","","","","","","","","","","","","1033","<p>Welcome to the Gazer demo experiment.</p>
    <p>The purpose of this demo is to provide working examples for all the available Gazer plugins for jsPsych.</p>
    <p>For documentation of this system, please visit <a href='https://amyvanwell.github.io/gazerCode/'>amyvanwell.github.io/gazerCode/</a>.</p> 
    <p>Press any key to proceed to the first part of the demonstration, the Gazer calibration.</p>"," ","","","","","","","","","","","","","","","","","","","","","","","","","","","","","","","","","","","","","","","","","","","","","","","","","","",""
"calibrate-quadrants-simple","4","27161","0.0-4.0","","","","","","","","","","","","","","","","","","","","83","","","","","","","","","","","","","","","","","","","","","","","","","","","","","","","","","","","","","","","","","","","","","","","","","",""
"html-keyboard-response","5","27951","0.0-5.0","","","","","","","","","","","","","","","","","789","<p>Thank you for calibrating, you will now proceed to the trials.</p><p> There are a total of 5 blocks of trials, each of a different type. <br>The first will be a block of 8 SINGLE-DOT-DURATION trials.</p><p>Your task is to fixate on the center cross, and then gaze at the red dot when it appears until the end of the trial.</p><p>In each trial, we will wait to present the red dot until we record your gaze has been on the center cross for 250ms consecutively.</p><p> Press [space] to continue to proceed to the first trial.</p>"," ","","","","","","","","","","","","","","","","","","","","","","","","","","","","","","","","","","","","","","","","","","","","","","","","","","",""
"Single-Cross-Gaze","6","28295","0.0-6.0-0.0","","","","","","","","","","","","","","","","","","","","","306","[{""startTime"":1689888380064,""x"":916,""y"":478,""analysisTime"":38},{""startTime"":1689888380113,""x"":775,""y"":289,""analysisTime"":28},{""startTime"":1689888380157,""x"":809,""y"":299,""analysisTime"":41},{""startTime"":1689888380208,""x"":791,""y"":288,""analysisTime"":39},{""startTime"":1689888380257,""x"":654,""y"":275,""analysisTime"":39},{""startTime"":1689888380306,""x"":659,""y"":245,""analysisTime"":40},{""startTime"":1689888380377,""x"":669,""y"":314,""analysisTime"":31}]","344","","","","","","","","","","","","","","","","","","","","","","","","","","","","","","","","","","","","","","","","","","","","","","",""
"Single-Dot-Duration","7","29864","0.0-6.0-1.0","","","","","","","","","","","","","","","","","","","","","","","","1440","718","[{""startTime"":0,""x"":675,""y"":288,""analysisTime"":33},{""startTime"":44,""x"":674,""y"":273,""analysisTime"":37},{""startTime"":91,""x"":697,""y"":211,""analysisTime"":26},{""startTime"":128,""x"":729,""y"":264,""analysisTime"":22},{""startTime"":166,""x"":710,""y"":262,""analysisTime"":40},{""startTime"":216,""x"":638,""y"":267,""analysisTime"":39},{""startTime"":265,""x"":733,""y"":315,""analysisTime"":38},{""startTime"":314,""x"":726,""y"":263,""analysisTime"":38},{""startTime"":362,""x"":648,""y"":248,""analysisTime"":38},{""startTime"":410,""x"":586,""y"":277,""analysisTime"":26},{""startTime"":450,""x"":650,""y"":270,""analysisTime"":39},{""startTime"":500,""x"":733,""y"":258,""analysisTime"":38},{""startTime"":549,""x"":838,""y"":275,""analysisTime"":31},{""startTime"":592,""x"":815,""y"":311,""analysisTime"":31},{""startTime"":634,""x"":763,""y"":289,""analysisTime"":38},{""startTime"":682,""x"":734,""y"":294,""analysisTime"":39},{""startTime"":731,""x"":735,""y"":300,""analysisTime"":39},{""startTime"":780,""x"":729,""y"":176,""analysisTime"":39},{""startTime"":830,""x"":681,""y"":151,""analysisTime"":37},{""startTime"":877,""x"":644,""y"":194,""analysisTime"":39},{""startTime"":927,""x"":717,""y"":169,""analysisTime"":38},{""startTime"":976,""x"":657,""y"":177,""analysisTime"":26},{""startTime"":1016,""x"":626,""y"":115,""analysisTime"":41},{""startTime"":1068,""x"":595,""y"":154,""analysisTime"":38},{""startTime"":1117,""x"":650,""y"":199,""analysisTime"":38},{""startTime"":1166,""x"":637,""y"":142,""analysisTime"":38},{""startTime"":1216,""x"":622,""y"":159,""analysisTime"":30},{""startTime"":1256,""x"":505,""y"":200,""analysisTime"":26},{""startTime"":1300,""x"":545,""y"":184,""analysisTime"":39},{""startTime"":1350,""x"":513,""y"":182,""analysisTime"":39},{""startTime"":1399,""x"":596,""y"":220,""analysisTime"":39},{""startTime"":1449,""x"":573,""y"":264,""analysisTime"":37},{""startTime"":1497,""x"":644,""y"":126,""analysisTime"":26},{""startTime"":1534,""x"":627,""y"":305,""analysisTime"":35}]","184.203125","134.203125","695","745","false","2","","","","","","","","","","","","","","","","","","","","","","","","","","","","","","","","","","","","","",""
"Single-Cross-Gaze","8","30497","0.0-6.0-0.1","","","","","","","","","","","","","","","","","","","","","280","[{""startTime"":1689888381978,""x"":569,""y"":176,""analysisTime"":20},{""startTime"":1689888382013,""x"":550,""y"":168,""analysisTime"":46},{""startTime"":1689888382070,""x"":651,""y"":172,""analysisTime"":23},{""startTime"":1689888382107,""x"":649,""y"":184,""analysisTime"":41},{""startTime"":1689888382159,""x"":602,""y"":129,""analysisTime"":40},{""startTime"":1689888382210,""x"":647,""y"":172,""analysisTime"":27},{""startTime"":1689888382250,""x"":722,""y"":169,""analysisTime"":30},{""startTime"":1689888382290,""x"":747,""y"":275,""analysisTime"":40},{""startTime"":1689888382340,""x"":690,""y"":239,""analysisTime"":38},{""startTime"":1689888382389,""x"":707,""y"":256,""analysisTime"":37},{""startTime"":1689888382436,""x"":817,""y"":262,""analysisTime"":40},{""startTime"":1689888382486,""x"":777,""y"":293,""analysisTime"":38},{""startTime"":1689888382535,""x"":787,""y"":297,""analysisTime"":38},{""startTime"":1689888382584,""x"":814,""y"":299,""analysisTime"":26}]","632","","","","","","","","","","","","","","","","","","","","","","","","","","","","","","","","","","","","","","","","","","","","","","",""
"Single-Dot-Duration","9","32046","0.0-6.0-1.1","","","","","","","","","","","","","","","","","","","","","","","","1440","718","[{""startTime"":0,""x"":771,""y"":279,""analysisTime"":31},{""startTime"":41,""x"":689,""y"":302,""analysisTime"":26},{""startTime"":80,""x"":680,""y"":268,""analysisTime"":40},{""startTime"":131,""x"":535,""y"":257,""analysisTime"":38},{""startTime"":179,""x"":576,""y"":265,""analysisTime"":38},{""startTime"":228,""x"":667,""y"":249,""analysisTime"":39},{""startTime"":278,""x"":686,""y"":252,""analysisTime"":37},{""startTime"":325,""x"":626,""y"":252,""analysisTime"":37},{""startTime"":373,""x"":642,""y"":229,""analysisTime"":25},{""startTime"":414,""x"":766,""y"":219,""analysisTime"":39},{""startTime"":464,""x"":721,""y"":220,""analysisTime"":38},{""startTime"":513,""x"":740,""y"":262,""analysisTime"":38},{""startTime"":561,""x"":630,""y"":272,""analysisTime"":39},{""startTime"":611,""x"":605,""y"":286,""analysisTime"":38},{""startTime"":659,""x"":734,""y"":306,""analysisTime"":38},{""startTime"":708,""x"":583,""y"":265,""analysisTime"":26},{""startTime"":749,""x"":693,""y"":293,""analysisTime"":38},{""startTime"":797,""x"":625,""y"":125,""analysisTime"":39},{""startTime"":847,""x"":543,""y"":66,""analysisTime"":37},{""startTime"":894,""x"":502,""y"":111,""analysisTime"":38},{""startTime"":943,""x"":503,""y"":112,""analysisTime"":38},{""startTime"":991,""x"":583,""y"":257,""analysisTime"":27},{""startTime"":1029,""x"":571,""y"":301,""analysisTime"":34},{""startTime"":1074,""x"":571,""y"":301,""analysisTime"":26},{""startTime"":1117,""x"":472,""y"":61,""analysisTime"":43},{""startTime"":1171,""x"":519,""y"":114,""analysisTime"":33},{""startTime"":1215,""x"":377,""y"":69,""analysisTime"":40},{""startTime"":1265,""x"":581,""y"":188,""analysisTime"":40},{""startTime"":1315,""x"":549,""y"":148,""analysisTime"":38},{""startTime"":1364,""x"":575,""y"":150,""analysisTime"":39},{""startTime"":1413,""x"":602,""y"":122,""analysisTime"":38},{""startTime"":1462,""x"":539,""y"":136,""analysisTime"":39},{""startTime"":1511,""x"":466,""y"":187,""analysisTime"":38}]","184.203125","134.203125","695","745","false","2","","","","","","","","","","","","","","","","","","","","","","","","","","","","","","","","","","","","","",""
"Single-Cross-Gaze","10","32830","0.0-6.0-0.2","","","","","","","","","","","","","","","","","","","","","280","[{""startTime"":1689888384160,""x"":550,""y"":179,""analysisTime"":32},{""startTime"":1689888384203,""x"":548,""y"":143,""analysisTime"":38},{""startTime"":1689888384251,""x"":564,""y"":172,""analysisTime"":26},{""startTime"":1689888384292,""x"":614,""y"":165,""analysisTime"":38},{""startTime"":1689888384342,""x"":416,""y"":139,""analysisTime"":36},{""startTime"":1689888384389,""x"":643,""y"":289,""analysisTime"":38},{""startTime"":1689888384438,""x"":775,""y"":282,""analysisTime"":38},{""startTime"":1689888384486,""x"":714,""y"":240,""analysisTime"":26},{""startTime"":1689888384526,""x"":762,""y"":190,""analysisTime"":38},{""startTime"":1689888384575,""x"":684,""y"":213,""analysisTime"":38},{""startTime"":1689888384624,""x"":674,""y"":215,""analysisTime"":39},{""startTime"":1689888384673,""x"":728,""y"":248,""analysisTime"":38},{""startTime"":1689888384721,""x"":725,""y"":223,""analysisTime"":40},{""startTime"":1689888384771,""x"":894,""y"":299,""analysisTime"":38},{""startTime"":1689888384820,""x"":853,""y"":297,""analysisTime"":37},{""startTime"":1689888384868,""x"":772,""y"":322,""analysisTime"":38},{""startTime"":1689888384916,""x"":735,""y"":351,""analysisTime"":27}]","783","","","","","","","","","","","","","","","","","","","","","","","","","","","","","","","","","","","","","","","","","","","","","","",""
"Single-Dot-Duration","11","34398","0.0-6.0-1.2","","","","","","","","","","","","","","","","","","","","","","","","1440","718","[{""startTime"":0,""x"":756,""y"":348,""analysisTime"":30},{""startTime"":40,""x"":619,""y"":323,""analysisTime"":26},{""startTime"":82,""x"":636,""y"":331,""analysisTime"":40},{""startTime"":133,""x"":671,""y"":276,""analysisTime"":39},{""startTime"":182,""x"":722,""y"":314,""analysisTime"":38},{""startTime"":230,""x"":708,""y"":347,""analysisTime"":39},{""startTime"":279,""x"":672,""y"":314,""analysisTime"":37},{""startTime"":328,""x"":660,""y"":671,""analysisTime"":39},{""startTime"":378,""x"":666,""y"":769,""analysisTime"":43},{""startTime"":451,""x"":678,""y"":329,""analysisTime"":33},{""startTime"":495,""x"":559,""y"":367,""analysisTime"":41},{""startTime"":547,""x"":505,""y"":286,""analysisTime"":38},{""startTime"":598,""x"":789,""y"":308,""analysisTime"":37},{""startTime"":645,""x"":577,""y"":309,""analysisTime"":37},{""startTime"":693,""x"":684,""y"":285,""analysisTime"":26},{""startTime"":732,""x"":667,""y"":328,""analysisTime"":39},{""startTime"":781,""x"":971,""y"":406,""analysisTime"":38},{""startTime"":830,""x"":1051,""y"":144,""analysisTime"":38},{""startTime"":879,""x"":970,""y"":87,""analysisTime"":38},{""startTime"":929,""x"":1075,""y"":178,""analysisTime"":39},{""startTime"":978,""x"":981,""y"":177,""analysisTime"":37},{""startTime"":1026,""x"":1049,""y"":156,""analysisTime"":26},{""startTime"":1064,""x"":1036,""y"":159,""analysisTime"":38},{""startTime"":1112,""x"":1082,""y"":144,""analysisTime"":39},{""startTime"":1162,""x"":983,""y"":158,""analysisTime"":38},{""startTime"":1211,""x"":938,""y"":162,""analysisTime"":38},{""startTime"":1259,""x"":902,""y"":100,""analysisTime"":26},{""startTime"":1299,""x"":880,""y"":160,""analysisTime"":38},{""startTime"":1348,""x"":953,""y"":221,""analysisTime"":38},{""startTime"":1397,""x"":1005,""y"":261,""analysisTime"":39},{""startTime"":1447,""x"":953,""y"":287,""analysisTime"":37},{""startTime"":1494,""x"":850,""y"":193,""analysisTime"":38},{""startTime"":1543,""x"":904,""y"":246,""analysisTime"":25}]","184.203125","134.203125","1199","1249","false","3","","","","","","","","","","","","","","","","","","","","","","","","","","","","","","","","","","","","","",""
"Single-Cross-Gaze","12","35088","0.0-6.0-0.3","","","","","","","","","","","","","","","","","","","","","277","[{""startTime"":1689888386511,""x"":867,""y"":214,""analysisTime"":30},{""startTime"":1689888386551,""x"":810,""y"":289,""analysisTime"":26},{""startTime"":1689888386591,""x"":1000,""y"":331,""analysisTime"":40},{""startTime"":1689888386642,""x"":823,""y"":266,""analysisTime"":38},{""startTime"":1689888386690,""x"":936,""y"":175,""analysisTime"":39},{""startTime"":1689888386739,""x"":973,""y"":232,""analysisTime"":38},{""startTime"":1689888386787,""x"":781,""y"":417,""analysisTime"":38},{""startTime"":1689888386836,""x"":959,""y"":497,""analysisTime"":38},{""startTime"":1689888386885,""x"":916,""y"":446,""analysisTime"":39},{""startTime"":1689888386934,""x"":832,""y"":432,""analysisTime"":27},{""startTime"":1689888386974,""x"":863,""y"":410,""analysisTime"":29},{""startTime"":1689888387017,""x"":827,""y"":374,""analysisTime"":43},{""startTime"":1689888387071,""x"":713,""y"":351,""analysisTime"":23},{""startTime"":1689888387109,""x"":731,""y"":273,""analysisTime"":41},{""startTime"":1689888387160,""x"":788,""y"":354,""analysisTime"":41}]","690","","","","","","","","","","","","","","","","","","","","","","","","","","","","","","","","","","","","","","","","","","","","","","",""
"Single-Dot-Duration","13","36674","0.0-6.0-1.3","","","","","","","","","","","","","","","","","","","","","","","","1440","718","[{""startTime"":0,""x"":788,""y"":354,""analysisTime"":21},{""startTime"":32,""x"":788,""y"":361,""analysisTime"":22},{""startTime"":64,""x"":770,""y"":345,""analysisTime"":36},{""startTime"":110,""x"":821,""y"":335,""analysisTime"":39},{""startTime"":159,""x"":680,""y"":332,""analysisTime"":40},{""startTime"":209,""x"":682,""y"":346,""analysisTime"":38},{""startTime"":259,""x"":776,""y"":403,""analysisTime"":37},{""startTime"":306,""x"":788,""y"":382,""analysisTime"":38},{""startTime"":355,""x"":738,""y"":399,""analysisTime"":38},{""startTime"":404,""x"":718,""y"":335,""analysisTime"":38},{""startTime"":453,""x"":681,""y"":336,""analysisTime"":26},{""startTime"":489,""x"":604,""y"":322,""analysisTime"":35},{""startTime"":534,""x"":617,""y"":328,""analysisTime"":39},{""startTime"":589,""x"":680,""y"":321,""analysisTime"":39},{""startTime"":639,""x"":693,""y"":307,""analysisTime"":38},{""startTime"":687,""x"":716,""y"":309,""analysisTime"":38},{""startTime"":736,""x"":802,""y"":313,""analysisTime"":39},{""startTime"":785,""x"":751,""y"":410,""analysisTime"":38},{""startTime"":833,""x"":744,""y"":495,""analysisTime"":27},{""startTime"":874,""x"":685,""y"":656,""analysisTime"":38},{""startTime"":922,""x"":670,""y"":648,""analysisTime"":39},{""startTime"":971,""x"":649,""y"":599,""analysisTime"":39},{""startTime"":1020,""x"":581,""y"":608,""analysisTime"":39},{""startTime"":1069,""x"":634,""y"":648,""analysisTime"":39},{""startTime"":1118,""x"":653,""y"":638,""analysisTime"":39},{""startTime"":1167,""x"":676,""y"":633,""analysisTime"":27},{""startTime"":1208,""x"":706,""y"":638,""analysisTime"":38},{""startTime"":1256,""x"":618,""y"":636,""analysisTime"":38},{""startTime"":1305,""x"":927,""y"":624,""analysisTime"":38},{""startTime"":1353,""x"":926,""y"":660,""analysisTime"":39},{""startTime"":1402,""x"":758,""y"":678,""analysisTime"":39},{""startTime"":1452,""x"":770,""y"":652,""analysisTime"":27},{""startTime"":1496,""x"":684,""y"":690,""analysisTime"":42},{""startTime"":1549,""x"":642,""y"":666,""analysisTime"":37}]","686.796875","636.796875","695","745","false","6","","","","","","","","","","","","","","","","","","","","","","","","","","","","","","","","","","","","","",""
"Single-Cross-Gaze","14","37266","0.0-6.0-0.4","","","","","","","","","","","","","","","","","","","","","284","[{""startTime"":1689888388787,""x"":675,""y"":691,""analysisTime"":33},{""startTime"":1689888388830,""x"":745,""y"":646,""analysisTime"":25},{""startTime"":1689888388867,""x"":728,""y"":651,""analysisTime"":33},{""startTime"":1689888388910,""x"":788,""y"":692,""analysisTime"":38},{""startTime"":1689888388964,""x"":693,""y"":713,""analysisTime"":26},{""startTime"":1689888389007,""x"":761,""y"":641,""analysisTime"":39},{""startTime"":1689888389057,""x"":759,""y"":491,""analysisTime"":38},{""startTime"":1689888389105,""x"":790,""y"":508,""analysisTime"":39},{""startTime"":1689888389155,""x"":682,""y"":536,""analysisTime"":37},{""startTime"":1689888389202,""x"":721,""y"":461,""analysisTime"":40},{""startTime"":1689888389253,""x"":744,""y"":524,""analysisTime"":25},{""startTime"":1689888389291,""x"":731,""y"":456,""analysisTime"":40},{""startTime"":1689888389341,""x"":615,""y"":491,""analysisTime"":38}]","592","","","","","","","","","","","","","","","","","","","","","","","","","","","","","","","","","","","","","","","","","","","","","","",""
"Single-Dot-Duration","15","38841","0.0-6.0-1.4","","","","","","","","","","","","","","","","","","","","","","","","1440","718","[{""startTime"":0,""x"":615,""y"":491,""analysisTime"":20},{""startTime"":32,""x"":615,""y"":451,""analysisTime"":32},{""startTime"":74,""x"":615,""y"":451,""analysisTime"":25},{""startTime"":110,""x"":708,""y"":461,""analysisTime"":20},{""startTime"":146,""x"":709,""y"":464,""analysisTime"":25},{""startTime"":183,""x"":680,""y"":441,""analysisTime"":20},{""startTime"":215,""x"":755,""y"":476,""analysisTime"":20},{""startTime"":247,""x"":784,""y"":450,""analysisTime"":20},{""startTime"":278,""x"":680,""y"":423,""analysisTime"":34},{""startTime"":323,""x"":739,""y"":470,""analysisTime"":25},{""startTime"":361,""x"":696,""y"":481,""analysisTime"":39},{""startTime"":410,""x"":723,""y"":454,""analysisTime"":39},{""startTime"":460,""x"":685,""y"":486,""analysisTime"":37},{""startTime"":508,""x"":712,""y"":427,""analysisTime"":38},{""startTime"":561,""x"":624,""y"":434,""analysisTime"":39},{""startTime"":611,""x"":706,""y"":485,""analysisTime"":30},{""startTime"":652,""x"":653,""y"":487,""analysisTime"":38},{""startTime"":701,""x"":623,""y"":473,""analysisTime"":38},{""startTime"":749,""x"":661,""y"":502,""analysisTime"":38},{""startTime"":798,""x"":867,""y"":589,""analysisTime"":38},{""startTime"":847,""x"":1079,""y"":627,""analysisTime"":38},{""startTime"":896,""x"":1052,""y"":560,""analysisTime"":38},{""startTime"":944,""x"":1123,""y"":574,""analysisTime"":43},{""startTime"":1009,""x"":1177,""y"":576,""analysisTime"":43},{""startTime"":1062,""x"":1101,""y"":580,""analysisTime"":39},{""startTime"":1111,""x"":1138,""y"":588,""analysisTime"":32},{""startTime"":1153,""x"":1125,""y"":598,""analysisTime"":27},{""startTime"":1195,""x"":1093,""y"":560,""analysisTime"":43},{""startTime"":1248,""x"":1114,""y"":578,""analysisTime"":41},{""startTime"":1299,""x"":1176,""y"":554,""analysisTime"":40},{""startTime"":1350,""x"":1100,""y"":606,""analysisTime"":38},{""startTime"":1398,""x"":1102,""y"":598,""analysisTime"":39},{""startTime"":1447,""x"":1136,""y"":618,""analysisTime"":38},{""startTime"":1495,""x"":1087,""y"":555,""analysisTime"":39},{""startTime"":1545,""x"":1114,""y"":591,""analysisTime"":30}]","686.796875","636.796875","1199","1249","false","5","","","","","","","","","","","","","","","","","","","","","","","","","","","","","","","","","","","","","",""
"Single-Cross-Gaze","16","39433","0.0-6.0-0.5","","","","","","","","","","","","","","","","","","","","","264","[{""startTime"":1689888390954,""x"":1141,""y"":575,""analysisTime"":34},{""startTime"":1689888390998,""x"":1107,""y"":609,""analysisTime"":27},{""startTime"":1689888391042,""x"":1143,""y"":603,""analysisTime"":40},{""startTime"":1689888391093,""x"":1102,""y"":552,""analysisTime"":41},{""startTime"":1689888391144,""x"":1130,""y"":529,""analysisTime"":40},{""startTime"":1689888391195,""x"":1180,""y"":535,""analysisTime"":38},{""startTime"":1689888391243,""x"":660,""y"":558,""analysisTime"":39},{""startTime"":1689888391293,""x"":721,""y"":497,""analysisTime"":37},{""startTime"":1689888391340,""x"":669,""y"":469,""analysisTime"":39},{""startTime"":1689888391390,""x"":673,""y"":486,""analysisTime"":25},{""startTime"":1689888391426,""x"":703,""y"":490,""analysisTime"":34},{""startTime"":1689888391470,""x"":759,""y"":422,""analysisTime"":39},{""startTime"":1689888391519,""x"":759,""y"":422,""analysisTime"":27}]","592","","","","","","","","","","","","","","","","","","","","","","","","","","","","","","","","","","","","","","","","","","","","","","",""
"Single-Dot-Duration","17","40984","0.0-6.0-1.5","","","","","","","","","","","","","","","","","","","","","","","","1440","718","[{""startTime"":0,""x"":749,""y"":461,""analysisTime"":30},{""startTime"":40,""x"":771,""y"":399,""analysisTime"":40},{""startTime"":90,""x"":734,""y"":422,""analysisTime"":26},{""startTime"":127,""x"":702,""y"":445,""analysisTime"":39},{""startTime"":177,""x"":748,""y"":464,""analysisTime"":37},{""startTime"":224,""x"":755,""y"":444,""analysisTime"":39},{""startTime"":273,""x"":755,""y"":444,""analysisTime"":26},{""startTime"":312,""x"":726,""y"":427,""analysisTime"":39},{""startTime"":361,""x"":644,""y"":445,""analysisTime"":40},{""startTime"":412,""x"":653,""y"":449,""analysisTime"":38},{""startTime"":460,""x"":641,""y"":448,""analysisTime"":38},{""startTime"":509,""x"":596,""y"":464,""analysisTime"":30},{""startTime"":550,""x"":597,""y"":461,""analysisTime"":54},{""startTime"":615,""x"":525,""y"":451,""analysisTime"":31},{""startTime"":657,""x"":554,""y"":403,""analysisTime"":26},{""startTime"":695,""x"":561,""y"":386,""analysisTime"":39},{""startTime"":745,""x"":337,""y"":322,""analysisTime"":38},{""startTime"":794,""x"":260,""y"":224,""analysisTime"":38},{""startTime"":843,""x"":237,""y"":192,""analysisTime"":25},{""startTime"":880,""x"":335,""y"":290,""analysisTime"":33},{""startTime"":923,""x"":458,""y"":435,""analysisTime"":39},{""startTime"":973,""x"":620,""y"":466,""analysisTime"":37},{""startTime"":1020,""x"":269,""y"":352,""analysisTime"":27},{""startTime"":1059,""x"":354,""y"":298,""analysisTime"":21},{""startTime"":1092,""x"":251,""y"":167,""analysisTime"":20},{""startTime"":1129,""x"":305,""y"":362,""analysisTime"":39},{""startTime"":1178,""x"":158,""y"":288,""analysisTime"":38},{""startTime"":1227,""x"":291,""y"":332,""analysisTime"":38},{""startTime"":1275,""x"":433,""y"":232,""analysisTime"":39},{""startTime"":1325,""x"":438,""y"":229,""analysisTime"":38},{""startTime"":1375,""x"":449,""y"":133,""analysisTime"":37},{""startTime"":1422,""x"":422,""y"":485,""analysisTime"":26},{""startTime"":1463,""x"":246,""y"":374,""analysisTime"":39},{""startTime"":1513,""x"":260,""y"":402,""analysisTime"":38}]","184.203125","134.203125","191","241","false","1","","","","","","","","","","","","","","","","","","","","","","","","","","","","","","","","","","","","","",""
"Single-Cross-Gaze","18","41575","0.0-6.0-0.6","","","","","","","","","","","","","","","","","","","","","278","[{""startTime"":1689888393098,""x"":324,""y"":338,""analysisTime"":20},{""startTime"":1689888393130,""x"":300,""y"":423,""analysisTime"":34},{""startTime"":1689888393175,""x"":210,""y"":337,""analysisTime"":39},{""startTime"":1689888393224,""x"":425,""y"":221,""analysisTime"":40},{""startTime"":1689888393274,""x"":478,""y"":479,""analysisTime"":39},{""startTime"":1689888393324,""x"":669,""y"":650,""analysisTime"":37},{""startTime"":1689888393372,""x"":823,""y"":526,""analysisTime"":38},{""startTime"":1689888393420,""x"":776,""y"":482,""analysisTime"":38},{""startTime"":1689888393469,""x"":798,""y"":466,""analysisTime"":38},{""startTime"":1689888393517,""x"":798,""y"":466,""analysisTime"":26},{""startTime"":1689888393558,""x"":814,""y"":434,""analysisTime"":39},{""startTime"":1689888393609,""x"":760,""y"":481,""analysisTime"":30},{""startTime"":1689888393649,""x"":775,""y"":362,""analysisTime"":39}]","590","","","","","","","","","","","","","","","","","","","","","","","","","","","","","","","","","","","","","","","","","","","","","","",""
"Single-Dot-Duration","19","43131","0.0-6.0-1.6","","","","","","","","","","","","","","","","","","","","","","","","1440","718","[{""startTime"":0,""x"":749,""y"":430,""analysisTime"":34},{""startTime"":45,""x"":782,""y"":414,""analysisTime"":38},{""startTime"":94,""x"":655,""y"":423,""analysisTime"":27},{""startTime"":155,""x"":690,""y"":410,""analysisTime"":38},{""startTime"":204,""x"":731,""y"":388,""analysisTime"":38},{""startTime"":253,""x"":637,""y"":505,""analysisTime"":39},{""startTime"":303,""x"":684,""y"":505,""analysisTime"":38},{""startTime"":351,""x"":788,""y"":401,""analysisTime"":38},{""startTime"":400,""x"":795,""y"":384,""analysisTime"":37},{""startTime"":448,""x"":764,""y"":437,""analysisTime"":39},{""startTime"":498,""x"":770,""y"":408,""analysisTime"":38},{""startTime"":546,""x"":683,""y"":472,""analysisTime"":26},{""startTime"":586,""x"":704,""y"":362,""analysisTime"":40},{""startTime"":636,""x"":795,""y"":446,""analysisTime"":38},{""startTime"":684,""x"":772,""y"":304,""analysisTime"":39},{""startTime"":733,""x"":752,""y"":332,""analysisTime"":39},{""startTime"":782,""x"":656,""y"":414,""analysisTime"":39},{""startTime"":832,""x"":693,""y"":423,""analysisTime"":24},{""startTime"":869,""x"":227,""y"":280,""analysisTime"":40},{""startTime"":920,""x"":334,""y"":279,""analysisTime"":30},{""startTime"":961,""x"":339,""y"":278,""analysisTime"":27},{""startTime"":1003,""x"":347,""y"":215,""analysisTime"":40},{""startTime"":1054,""x"":354,""y"":256,""analysisTime"":39},{""startTime"":1104,""x"":341,""y"":223,""analysisTime"":38},{""startTime"":1153,""x"":314,""y"":168,""analysisTime"":39},{""startTime"":1202,""x"":350,""y"":164,""analysisTime"":39},{""startTime"":1251,""x"":414,""y"":199,""analysisTime"":39},{""startTime"":1301,""x"":346,""y"":187,""analysisTime"":37},{""startTime"":1348,""x"":354,""y"":199,""analysisTime"":39},{""startTime"":1397,""x"":354,""y"":199,""analysisTime"":26},{""startTime"":1435,""x"":328,""y"":168,""analysisTime"":38},{""startTime"":1484,""x"":508,""y"":457,""analysisTime"":26},{""startTime"":1521,""x"":719,""y"":748,""analysisTime"":34}]","435.5","385.5","191","241","false","8","","","","","","","","","","","","","","","","","","","","","","","","","","","","","","","","","","","","","",""
"Single-Cross-Gaze","20","45161","0.0-6.0-0.7","","","","","","","","","","","","","","","","","","","","","260","[{""startTime"":1689888395244,""x"":835,""y"":721,""analysisTime"":20},{""startTime"":1689888395275,""x"":1052,""y"":746,""analysisTime"":38},{""startTime"":1689888395323,""x"":1227,""y"":894,""analysisTime"":39},{""startTime"":1689888395372,""x"":740,""y"":708,""analysisTime"":38},{""startTime"":1689888395421,""x"":676,""y"":720,""analysisTime"":38},{""startTime"":1689888395469,""x"":599,""y"":648,""analysisTime"":39},{""startTime"":1689888395519,""x"":599,""y"":648,""analysisTime"":27},{""startTime"":1689888395570,""x"":378,""y"":370,""analysisTime"":36},{""startTime"":1689888395617,""x"":991,""y"":537,""analysisTime"":34},{""startTime"":1689888395662,""x"":821,""y"":464,""analysisTime"":38},{""startTime"":1689888395711,""x"":788,""y"":462,""analysisTime"":38},{""startTime"":1689888395760,""x"":671,""y"":500,""analysisTime"":37},{""startTime"":1689888395808,""x"":701,""y"":488,""analysisTime"":38},{""startTime"":1689888395856,""x"":802,""y"":784,""analysisTime"":39},{""startTime"":1689888395905,""x"":778,""y"":749,""analysisTime"":39},{""startTime"":1689888395955,""x"":781,""y"":649,""analysisTime"":38},{""startTime"":1689888396003,""x"":711,""y"":514,""analysisTime"":38},{""startTime"":1689888396051,""x"":711,""y"":514,""analysisTime"":26},{""startTime"":1689888396089,""x"":715,""y"":519,""analysisTime"":21},{""startTime"":1689888396123,""x"":845,""y"":541,""analysisTime"":39},{""startTime"":1689888396172,""x"":750,""y"":523,""analysisTime"":39},{""startTime"":1689888396221,""x"":793,""y"":538,""analysisTime"":39},{""startTime"":1689888396271,""x"":816,""y"":590,""analysisTime"":38},{""startTime"":1689888396320,""x"":816,""y"":590,""analysisTime"":25},{""startTime"":1689888396358,""x"":939,""y"":701,""analysisTime"":39},{""startTime"":1689888396408,""x"":769,""y"":823,""analysisTime"":38},{""startTime"":1689888396457,""x"":808,""y"":664,""analysisTime"":38},{""startTime"":1689888396506,""x"":740,""y"":636,""analysisTime"":38},{""startTime"":1689888396554,""x"":771,""y"":588,""analysisTime"":38},{""startTime"":1689888396603,""x"":694,""y"":617,""analysisTime"":39},{""startTime"":1689888396653,""x"":808,""y"":606,""analysisTime"":25},{""startTime"":1689888396692,""x"":832,""y"":577,""analysisTime"":38},{""startTime"":1689888396741,""x"":764,""y"":640,""analysisTime"":40},{""startTime"":1689888396791,""x"":663,""y"":621,""analysisTime"":39},{""startTime"":1689888396842,""x"":738,""y"":612,""analysisTime"":30},{""startTime"":1689888396883,""x"":810,""y"":542,""analysisTime"":26},{""startTime"":1689888396925,""x"":813,""y"":609,""analysisTime"":39},{""startTime"":1689888396975,""x"":806,""y"":571,""analysisTime"":39},{""startTime"":1689888397025,""x"":669,""y"":534,""analysisTime"":38},{""startTime"":1689888397073,""x"":809,""y"":571,""analysisTime"":39},{""startTime"":1689888397123,""x"":733,""y"":546,""analysisTime"":37},{""startTime"":1689888397171,""x"":640,""y"":561,""analysisTime"":38},{""startTime"":1689888397230,""x"":640,""y"":561,""analysisTime"":44}]","2030","","","","","","","","","","","","","","","","","","","","","","","","","","","","","","","","","","","","","","","","","","","","","","",""
"Single-Dot-Duration","21","46712","0.0-6.0-1.7","","","","","","","","","","","","","","","","","","","","","","","","1440","718","[{""startTime"":0,""x"":663,""y"":560,""analysisTime"":30},{""startTime"":41,""x"":711,""y"":489,""analysisTime"":26},{""startTime"":78,""x"":696,""y"":684,""analysisTime"":30},{""startTime"":118,""x"":886,""y"":745,""analysisTime"":39},{""startTime"":167,""x"":858,""y"":718,""analysisTime"":39},{""startTime"":217,""x"":870,""y"":793,""analysisTime"":25},{""startTime"":253,""x"":834,""y"":629,""analysisTime"":34},{""startTime"":297,""x"":627,""y"":560,""analysisTime"":39},{""startTime"":347,""x"":708,""y"":491,""analysisTime"":37},{""startTime"":394,""x"":698,""y"":513,""analysisTime"":27},{""startTime"":435,""x"":740,""y"":451,""analysisTime"":38},{""startTime"":486,""x"":778,""y"":489,""analysisTime"":30},{""startTime"":527,""x"":720,""y"":435,""analysisTime"":25},{""startTime"":568,""x"":698,""y"":612,""analysisTime"":40},{""startTime"":618,""x"":982,""y"":688,""analysisTime"":39},{""startTime"":667,""x"":856,""y"":655,""analysisTime"":39},{""startTime"":716,""x"":839,""y"":699,""analysisTime"":38},{""startTime"":765,""x"":732,""y"":406,""analysisTime"":38},{""startTime"":814,""x"":737,""y"":470,""analysisTime"":38},{""startTime"":862,""x"":869,""y"":630,""analysisTime"":38},{""startTime"":911,""x"":925,""y"":513,""analysisTime"":38},{""startTime"":959,""x"":1132,""y"":592,""analysisTime"":26},{""startTime"":1001,""x"":1130,""y"":542,""analysisTime"":38},{""startTime"":1050,""x"":1133,""y"":501,""analysisTime"":38},{""startTime"":1102,""x"":1124,""y"":526,""analysisTime"":38},{""startTime"":1152,""x"":1160,""y"":498,""analysisTime"":30},{""startTime"":1192,""x"":1114,""y"":521,""analysisTime"":26},{""startTime"":1234,""x"":1144,""y"":523,""analysisTime"":39},{""startTime"":1284,""x"":1163,""y"":449,""analysisTime"":38},{""startTime"":1332,""x"":1095,""y"":499,""analysisTime"":40},{""startTime"":1382,""x"":1061,""y"":488,""analysisTime"":39},{""startTime"":1432,""x"":1005,""y"":387,""analysisTime"":39},{""startTime"":1481,""x"":1005,""y"":387,""analysisTime"":26},{""startTime"":1518,""x"":968,""y"":394,""analysisTime"":33}]","435.5","385.5","1199","1249","false","4","","","","","","","","","","","","","","","","","","","","","","","","","","","","","","","","","","","","","",""
"html-keyboard-response","22","48219","0.0-7.0","","","","","","","","","","","","","","","","","1506","SINGLE-DOT-DURATION trials are completed. <p>The next block will contain 5 DOUBLE-IMAGE-GAZE trials. This is the only trial types in which a gaze response is necessary to complete the trial.</p><p>To finish a trial, please gaze at one of the stimuli for 1000ms straight.</p>  Press [space] to continue"," ","","","","","","","","","","","","","","","","","","","","","","","","","","","","","","","","","","","","","","","","","","","","","","","","","","",""
"Double-Image-Gaze","23","49301","0.0-8.0-0.0","","","","","","","","","","","","","","","","","","","","","","","","1440","718","","","","","","","","1081","[{""startTime"":0,""x"":715,""y"":444,""analysisTime"":41},{""startTime"":52,""x"":715,""y"":444,""analysisTime"":27},{""startTime"":91,""x"":707,""y"":461,""analysisTime"":40},{""startTime"":142,""x"":716,""y"":445,""analysisTime"":26},{""startTime"":179,""x"":731,""y"":332,""analysisTime"":35},{""startTime"":225,""x"":728,""y"":403,""analysisTime"":38},{""startTime"":273,""x"":884,""y"":372,""analysisTime"":38},{""startTime"":323,""x"":922,""y"":413,""analysisTime"":37},{""startTime"":370,""x"":938,""y"":421,""analysisTime"":38},{""startTime"":419,""x"":933,""y"":276,""analysisTime"":37},{""startTime"":466,""x"":966,""y"":280,""analysisTime"":30},{""startTime"":508,""x"":925,""y"":307,""analysisTime"":39},{""startTime"":558,""x"":897,""y"":332,""analysisTime"":38},{""startTime"":606,""x"":879,""y"":337,""analysisTime"":39},{""startTime"":655,""x"":788,""y"":324,""analysisTime"":40},{""startTime"":705,""x"":853,""y"":255,""analysisTime"":39},{""startTime"":755,""x"":861,""y"":396,""analysisTime"":38},{""startTime"":803,""x"":866,""y"":452,""analysisTime"":38},{""startTime"":852,""x"":866,""y"":452,""analysisTime"":28},{""startTime"":897,""x"":928,""y"":403,""analysisTime"":40},{""startTime"":949,""x"":839,""y"":388,""analysisTime"":34},{""startTime"":994,""x"":839,""y"":367,""analysisTime"":38},{""startTime"":1043,""x"":973,""y"":401,""analysisTime"":38}]","./img/birds/bird9.jpeg","./img/birds/bird10.jpeg","{""x"":255,""y"":226.5,""width"":450,""height"":318,""top"":226.5,""right"":705,""bottom"":544.5,""left"":255}","{""x"":705,""y"":226.5,""width"":480,""height"":318,""top"":226.5,""right"":1185,""bottom"":544.5,""left"":705}","right","","","","","","","","","","","","","","","","","","","","","","","","","","","","","","",""
"Double-Image-Gaze","24","50383","0.0-8.0-0.1","","","","","","","","","","","","","","","","","","","","","","","","1440","718","","","","","","","","1081","[{""startTime"":0,""x"":973,""y"":401,""analysisTime"":21},{""startTime"":32,""x"":918,""y"":453,""analysisTime"":34},{""startTime"":77,""x"":958,""y"":420,""analysisTime"":38},{""startTime"":125,""x"":951,""y"":421,""analysisTime"":39},{""startTime"":174,""x"":884,""y"":434,""analysisTime"":39},{""startTime"":223,""x"":918,""y"":431,""analysisTime"":39},{""startTime"":273,""x"":941,""y"":440,""analysisTime"":37},{""startTime"":320,""x"":988,""y"":419,""analysisTime"":39},{""startTime"":370,""x"":988,""y"":419,""analysisTime"":25},{""startTime"":406,""x"":938,""y"":446,""analysisTime"":22},{""startTime"":439,""x"":925,""y"":461,""analysisTime"":22},{""startTime"":476,""x"":925,""y"":389,""analysisTime"":39},{""startTime"":526,""x"":931,""y"":409,""analysisTime"":38},{""startTime"":574,""x"":954,""y"":408,""analysisTime"":38},{""startTime"":623,""x"":953,""y"":429,""analysisTime"":38},{""startTime"":672,""x"":935,""y"":405,""analysisTime"":38},{""startTime"":721,""x"":868,""y"":714,""analysisTime"":39},{""startTime"":771,""x"":1020,""y"":761,""analysisTime"":24},{""startTime"":810,""x"":944,""y"":618,""analysisTime"":38},{""startTime"":860,""x"":862,""y"":472,""analysisTime"":31},{""startTime"":902,""x"":928,""y"":511,""analysisTime"":26},{""startTime"":942,""x"":960,""y"":511,""analysisTime"":41},{""startTime"":993,""x"":871,""y"":463,""analysisTime"":39},{""startTime"":1042,""x"":868,""y"":482,""analysisTime"":39}]","./img/birds/bird1.jpeg","./img/birds/bird2.jpeg","{""x"":255,""y"":226.5,""width"":450,""height"":318,""top"":226.5,""right"":705,""bottom"":544.5,""left"":255}","{""x"":705,""y"":226.5,""width"":480,""height"":318,""top"":226.5,""right"":1185,""bottom"":544.5,""left"":705}","right","","","","","","","","","","","","","","","","","","","","","","","","","","","","","","",""
"Double-Image-Gaze","25","51966","0.0-8.0-0.2","","","","","","","","","","","","","","","","","","","","","","","","1440","718","","","","","","","","1582","[{""startTime"":0,""x"":898,""y"":486,""analysisTime"":21},{""startTime"":32,""x"":788,""y"":473,""analysisTime"":34},{""startTime"":76,""x"":960,""y"":511,""analysisTime"":39},{""startTime"":126,""x"":926,""y"":502,""analysisTime"":38},{""startTime"":175,""x"":902,""y"":464,""analysisTime"":38},{""startTime"":224,""x"":902,""y"":464,""analysisTime"":25},{""startTime"":261,""x"":982,""y"":463,""analysisTime"":33},{""startTime"":305,""x"":822,""y"":483,""analysisTime"":26},{""startTime"":343,""x"":784,""y"":505,""analysisTime"":21},{""startTime"":377,""x"":843,""y"":507,""analysisTime"":40},{""startTime"":448,""x"":885,""y"":478,""analysisTime"":32},{""startTime"":490,""x"":1082,""y"":398,""analysisTime"":40},{""startTime"":541,""x"":642,""y"":402,""analysisTime"":41},{""startTime"":593,""x"":571,""y"":275,""analysisTime"":38},{""startTime"":642,""x"":513,""y"":288,""analysisTime"":38},{""startTime"":691,""x"":683,""y"":209,""analysisTime"":38},{""startTime"":739,""x"":469,""y"":220,""analysisTime"":39},{""startTime"":789,""x"":469,""y"":220,""analysisTime"":25},{""startTime"":828,""x"":460,""y"":247,""analysisTime"":38},{""startTime"":877,""x"":437,""y"":259,""analysisTime"":30},{""startTime"":918,""x"":481,""y"":235,""analysisTime"":25},{""startTime"":961,""x"":541,""y"":226,""analysisTime"":39},{""startTime"":1011,""x"":502,""y"":263,""analysisTime"":39},{""startTime"":1060,""x"":466,""y"":194,""analysisTime"":39},{""startTime"":1109,""x"":545,""y"":239,""analysisTime"":39},{""startTime"":1158,""x"":555,""y"":231,""analysisTime"":39},{""startTime"":1207,""x"":528,""y"":204,""analysisTime"":39},{""startTime"":1257,""x"":520,""y"":214,""analysisTime"":38},{""startTime"":1306,""x"":481,""y"":211,""analysisTime"":38},{""startTime"":1355,""x"":563,""y"":239,""analysisTime"":38},{""startTime"":1403,""x"":552,""y"":233,""analysisTime"":27},{""startTime"":1445,""x"":568,""y"":180,""analysisTime"":39},{""startTime"":1495,""x"":520,""y"":184,""analysisTime"":37},{""startTime"":1543,""x"":516,""y"":208,""analysisTime"":39}]","./img/birds/bird7.jpeg","./img/birds/bird8.jpeg","{""x"":255,""y"":226.5,""width"":450,""height"":318,""top"":226.5,""right"":705,""bottom"":544.5,""left"":255}","{""x"":705,""y"":226.5,""width"":480,""height"":318,""top"":226.5,""right"":1185,""bottom"":544.5,""left"":705}","left","","","","","","","","","","","","","","","","","","","","","","","","","","","","","","",""
"Double-Image-Gaze","26","53332","0.0-8.0-0.3","","","","","","","","","","","","","","","","","","","","","","","","1440","718","","","","","","","","1365","[{""startTime"":0,""x"":516,""y"":208,""analysisTime"":20},{""startTime"":31,""x"":519,""y"":133,""analysisTime"":35},{""startTime"":77,""x"":624,""y"":175,""analysisTime"":37},{""startTime"":125,""x"":578,""y"":221,""analysisTime"":38},{""startTime"":173,""x"":558,""y"":202,""analysisTime"":39},{""startTime"":222,""x"":523,""y"":202,""analysisTime"":39},{""startTime"":271,""x"":531,""y"":221,""analysisTime"":39},{""startTime"":320,""x"":556,""y"":241,""analysisTime"":26},{""startTime"":361,""x"":547,""y"":246,""analysisTime"":39},{""startTime"":412,""x"":491,""y"":271,""analysisTime"":39},{""startTime"":462,""x"":491,""y"":200,""analysisTime"":39},{""startTime"":512,""x"":635,""y"":234,""analysisTime"":40},{""startTime"":583,""x"":581,""y"":200,""analysisTime"":30},{""startTime"":624,""x"":553,""y"":192,""analysisTime"":38},{""startTime"":673,""x"":553,""y"":192,""analysisTime"":26},{""startTime"":711,""x"":597,""y"":190,""analysisTime"":38},{""startTime"":759,""x"":601,""y"":191,""analysisTime"":26},{""startTime"":796,""x"":555,""y"":243,""analysisTime"":34},{""startTime"":840,""x"":531,""y"":200,""analysisTime"":40},{""startTime"":890,""x"":583,""y"":215,""analysisTime"":39},{""startTime"":940,""x"":551,""y"":174,""analysisTime"":25},{""startTime"":978,""x"":489,""y"":164,""analysisTime"":38},{""startTime"":1026,""x"":506,""y"":183,""analysisTime"":39},{""startTime"":1075,""x"":587,""y"":167,""analysisTime"":38},{""startTime"":1124,""x"":511,""y"":211,""analysisTime"":38},{""startTime"":1176,""x"":549,""y"":163,""analysisTime"":41},{""startTime"":1228,""x"":523,""y"":223,""analysisTime"":39},{""startTime"":1277,""x"":532,""y"":208,""analysisTime"":39},{""startTime"":1327,""x"":435,""y"":186,""analysisTime"":38}]","./img/birds/bird3.jpeg","./img/birds/bird4.jpeg","{""x"":255,""y"":226.5,""width"":450,""height"":318,""top"":226.5,""right"":705,""bottom"":544.5,""left"":255}","{""x"":705,""y"":226.5,""width"":480,""height"":318,""top"":226.5,""right"":1185,""bottom"":544.5,""left"":705}","left","","","","","","","","","","","","","","","","","","","","","","","","","","","","","","",""
"Double-Image-Gaze","27","54829","0.0-8.0-0.4","","","","","","","","","","","","","","","","","","","","","","","","1440","718","","","","","","","","1497","[{""startTime"":0,""x"":544,""y"":206,""analysisTime"":21},{""startTime"":32,""x"":449,""y"":215,""analysisTime"":35},{""startTime"":79,""x"":503,""y"":183,""analysisTime"":39},{""startTime"":128,""x"":434,""y"":203,""analysisTime"":38},{""startTime"":177,""x"":477,""y"":192,""analysisTime"":38},{""startTime"":225,""x"":499,""y"":173,""analysisTime"":39},{""startTime"":275,""x"":532,""y"":196,""analysisTime"":38},{""startTime"":323,""x"":481,""y"":206,""analysisTime"":26},{""startTime"":360,""x"":540,""y"":216,""analysisTime"":21},{""startTime"":397,""x"":980,""y"":648,""analysisTime"":39},{""startTime"":447,""x"":940,""y"":507,""analysisTime"":26},{""startTime"":484,""x"":1001,""y"":487,""analysisTime"":22},{""startTime"":517,""x"":957,""y"":379,""analysisTime"":34},{""startTime"":561,""x"":1005,""y"":435,""analysisTime"":39},{""startTime"":611,""x"":917,""y"":439,""analysisTime"":37},{""startTime"":659,""x"":994,""y"":429,""analysisTime"":38},{""startTime"":709,""x"":1027,""y"":407,""analysisTime"":27},{""startTime"":751,""x"":986,""y"":425,""analysisTime"":41},{""startTime"":802,""x"":1022,""y"":407,""analysisTime"":36},{""startTime"":849,""x"":988,""y"":313,""analysisTime"":39},{""startTime"":899,""x"":1098,""y"":406,""analysisTime"":38},{""startTime"":947,""x"":822,""y"":397,""analysisTime"":38},{""startTime"":996,""x"":928,""y"":358,""analysisTime"":38},{""startTime"":1045,""x"":929,""y"":348,""analysisTime"":38},{""startTime"":1094,""x"":993,""y"":312,""analysisTime"":31},{""startTime"":1135,""x"":962,""y"":432,""analysisTime"":26},{""startTime"":1172,""x"":890,""y"":438,""analysisTime"":31},{""startTime"":1214,""x"":949,""y"":357,""analysisTime"":40},{""startTime"":1264,""x"":918,""y"":359,""analysisTime"":40},{""startTime"":1314,""x"":952,""y"":396,""analysisTime"":38},{""startTime"":1362,""x"":948,""y"":386,""analysisTime"":38},{""startTime"":1411,""x"":1014,""y"":356,""analysisTime"":37},{""startTime"":1459,""x"":889,""y"":402,""analysisTime"":38}]","./img/birds/bird5.jpeg","./img/birds/bird6.jpeg","{""x"":255,""y"":226.5,""width"":450,""height"":318,""top"":226.5,""right"":705,""bottom"":544.5,""left"":255}","{""x"":705,""y"":226.5,""width"":480,""height"":318,""top"":226.5,""right"":1185,""bottom"":544.5,""left"":705}","right","","","","","","","","","","","","","","","","","","","","","","","","","","","","","","",""
"html-keyboard-response","28","55626","0.0-9.0","","","","","","","","","","","","","","","","","797","Active vision trials are completed. <p>The next set of trials will demonstrate the DOUBLE-IMAGE-KEY trial type.</p><p>To end a trial, you will need to provide a key response. Use the [f] or [j] keys to end a trial.</p> <p>To proceed to the trials, press the [space] key.</p>"," ","","","","","","","","","","","","","","","","","","","","","","","","","","","","","","","","","","","","","","","","","","","","","","","","","","",""
"Double-Image-Key","29","60111","0.0-10.0-0.0","","","","","","","","","","","","","","","","","","","","","","","","1440","718","","","","","","","","","","","","","","","[{""startTime"":0,""x"":997,""y"":452,""analysisTime"":36},{""startTime"":48,""x"":866,""y"":356,""analysisTime"":38},{""startTime"":97,""x"":942,""y"":371,""analysisTime"":40},{""startTime"":149,""x"":850,""y"":370,""analysisTime"":28},{""startTime"":189,""x"":887,""y"":330,""analysisTime"":22},{""startTime"":222,""x"":803,""y"":353,""analysisTime"":36},{""startTime"":270,""x"":854,""y"":345,""analysisTime"":25},{""startTime"":306,""x"":638,""y"":296,""analysisTime"":35},{""startTime"":352,""x"":595,""y"":269,""analysisTime"":37},{""startTime"":401,""x"":501,""y"":229,""analysisTime"":39},{""startTime"":451,""x"":558,""y"":253,""analysisTime"":36},{""startTime"":504,""x"":502,""y"":307,""analysisTime"":43},{""startTime"":559,""x"":585,""y"":231,""analysisTime"":21},{""startTime"":591,""x"":735,""y"":363,""analysisTime"":35},{""startTime"":636,""x"":827,""y"":305,""analysisTime"":39},{""startTime"":686,""x"":842,""y"":294,""analysisTime"":37},{""startTime"":735,""x"":819,""y"":456,""analysisTime"":39},{""startTime"":784,""x"":755,""y"":664,""analysisTime"":39},{""startTime"":834,""x"":789,""y"":707,""analysisTime"":26},{""startTime"":872,""x"":956,""y"":712,""analysisTime"":21},{""startTime"":904,""x"":939,""y"":750,""analysisTime"":22},{""startTime"":937,""x"":886,""y"":754,""analysisTime"":21},{""startTime"":969,""x"":922,""y"":732,""analysisTime"":35},{""startTime"":1015,""x"":910,""y"":673,""analysisTime"":38},{""startTime"":1064,""x"":892,""y"":699,""analysisTime"":26},{""startTime"":1101,""x"":765,""y"":376,""analysisTime"":34},{""startTime"":1145,""x"":630,""y"":378,""analysisTime"":26},{""startTime"":1183,""x"":627,""y"":285,""analysisTime"":21},{""startTime"":1218,""x"":489,""y"":211,""analysisTime"":38},{""startTime"":1267,""x"":581,""y"":225,""analysisTime"":26},{""startTime"":1304,""x"":591,""y"":190,""analysisTime"":35},{""startTime"":1349,""x"":587,""y"":184,""analysisTime"":39},{""startTime"":1398,""x"":585,""y"":174,""analysisTime"":26},{""startTime"":1436,""x"":548,""y"":183,""analysisTime"":21},{""startTime"":1469,""x"":521,""y"":172,""analysisTime"":33},{""startTime"":1514,""x"":519,""y"":189,""analysisTime"":38},{""startTime"":1563,""x"":613,""y"":183,""analysisTime"":39},{""startTime"":1612,""x"":613,""y"":183,""analysisTime"":27},{""startTime"":1652,""x"":567,""y"":199,""analysisTime"":38},{""startTime"":1701,""x"":470,""y"":153,""analysisTime"":39},{""startTime"":1752,""x"":574,""y"":205,""analysisTime"":38},{""startTime"":1801,""x"":560,""y"":169,""analysisTime"":26},{""startTime"":1838,""x"":580,""y"":204,""analysisTime"":33},{""startTime"":1882,""x"":593,""y"":179,""analysisTime"":27},{""startTime"":1920,""x"":580,""y"":175,""analysisTime"":33},{""startTime"":1963,""x"":657,""y"":140,""analysisTime"":39},{""startTime"":2012,""x"":629,""y"":163,""analysisTime"":39},{""startTime"":2062,""x"":564,""y"":166,""analysisTime"":26},{""startTime"":2099,""x"":616,""y"":140,""analysisTime"":21},{""startTime"":2132,""x"":625,""y"":120,""analysisTime"":39},{""startTime"":2192,""x"":470,""y"":136,""analysisTime"":51},{""startTime"":2255,""x"":578,""y"":100,""analysisTime"":21},{""startTime"":2287,""x"":618,""y"":131,""analysisTime"":34},{""startTime"":2332,""x"":681,""y"":256,""analysisTime"":38},{""startTime"":2382,""x"":630,""y"":252,""analysisTime"":39},{""startTime"":2432,""x"":612,""y"":215,""analysisTime"":39},{""startTime"":2481,""x"":553,""y"":175,""analysisTime"":38},{""startTime"":2529,""x"":540,""y"":161,""analysisTime"":39},{""startTime"":2579,""x"":542,""y"":160,""analysisTime"":38},{""startTime"":2628,""x"":610,""y"":188,""analysisTime"":27},{""startTime"":2666,""x"":562,""y"":142,""analysisTime"":21},{""startTime"":2701,""x"":519,""y"":154,""analysisTime"":38},{""startTime"":2750,""x"":575,""y"":172,""analysisTime"":37},{""startTime"":2798,""x"":619,""y"":169,""analysisTime"":39},{""startTime"":2848,""x"":736,""y"":367,""analysisTime"":37},{""startTime"":2897,""x"":673,""y"":305,""analysisTime"":37},{""startTime"":2945,""x"":674,""y"":305,""analysisTime"":37},{""startTime"":2993,""x"":696,""y"":277,""analysisTime"":26},{""startTime"":3034,""x"":694,""y"":288,""analysisTime"":25},{""startTime"":3070,""x"":662,""y"":291,""analysisTime"":21},{""startTime"":3102,""x"":658,""y"":313,""analysisTime"":21},{""startTime"":3135,""x"":677,""y"":307,""analysisTime"":21},{""startTime"":3167,""x"":762,""y"":309,""analysisTime"":21},{""startTime"":3199,""x"":1103,""y"":737,""analysisTime"":34},{""startTime"":3243,""x"":1246,""y"":808,""analysisTime"":26},{""startTime"":3285,""x"":978,""y"":594,""analysisTime"":38},{""startTime"":3333,""x"":1000,""y"":667,""analysisTime"":38},{""startTime"":3382,""x"":955,""y"":456,""analysisTime"":39},{""startTime"":3431,""x"":900,""y"":416,""analysisTime"":26},{""startTime"":3468,""x"":1024,""y"":372,""analysisTime"":38},{""startTime"":3517,""x"":1036,""y"":385,""analysisTime"":41},{""startTime"":3568,""x"":1088,""y"":266,""analysisTime"":38},{""startTime"":3616,""x"":951,""y"":370,""analysisTime"":38},{""startTime"":3665,""x"":874,""y"":324,""analysisTime"":38},{""startTime"":3713,""x"":922,""y"":313,""analysisTime"":38},{""startTime"":3761,""x"":966,""y"":367,""analysisTime"":27},{""startTime"":3799,""x"":1010,""y"":337,""analysisTime"":21},{""startTime"":3830,""x"":923,""y"":294,""analysisTime"":28},{""startTime"":3876,""x"":977,""y"":279,""analysisTime"":43},{""startTime"":3931,""x"":1009,""y"":355,""analysisTime"":21},{""startTime"":3968,""x"":996,""y"":412,""analysisTime"":39},{""startTime"":4018,""x"":957,""y"":347,""analysisTime"":38},{""startTime"":4066,""x"":962,""y"":408,""analysisTime"":26},{""startTime"":4103,""x"":1021,""y"":355,""analysisTime"":33},{""startTime"":4147,""x"":962,""y"":355,""analysisTime"":37},{""startTime"":4194,""x"":972,""y"":307,""analysisTime"":27},{""startTime"":4234,""x"":941,""y"":399,""analysisTime"":38},{""startTime"":4283,""x"":951,""y"":366,""analysisTime"":38},{""startTime"":4331,""x"":857,""y"":393,""analysisTime"":39},{""startTime"":4380,""x"":865,""y"":405,""analysisTime"":39},{""startTime"":4429,""x"":933,""y"":443,""analysisTime"":27}]","./img/birds/bird5.jpeg","./img/birds/bird6.jpeg","{""LstimTop"":226.5,""LstimBot"":544.5,""LstimLeft"":240,""LstimRight"":720,""RstimTop"":226.5,""RstimBot"":544.5,""RstimLeft"":720,""RstimRight"":1200}","{""key"":""j"",""rt"":4484}","","","","","","","","","","","","","","","","","","","","","","","","","",""
"Double-Image-Key","30","62859","0.0-10.0-0.1","","","","","","","","","","","","","","","","","","","","","","","","1440","718","","","","","","","","","","","","","","","[{""startTime"":4467,""x"":1096,""y"":311,""analysisTime"":48},{""startTime"":0,""x"":1051,""y"":348,""analysisTime"":38},{""startTime"":44,""x"":974,""y"":254,""analysisTime"":42},{""startTime"":48,""x"":1088,""y"":313,""analysisTime"":38},{""startTime"":97,""x"":1119,""y"":329,""analysisTime"":43},{""startTime"":102,""x"":1008,""y"":265,""analysisTime"":38},{""startTime"":150,""x"":1093,""y"":317,""analysisTime"":42},{""startTime"":154,""x"":1093,""y"":317,""analysisTime"":38},{""startTime"":203,""x"":1009,""y"":434,""analysisTime"":38},{""startTime"":206,""x"":1009,""y"":434,""analysisTime"":35},{""startTime"":251,""x"":1008,""y"":411,""analysisTime"":40},{""startTime"":255,""x"":1008,""y"":411,""analysisTime"":36},{""startTime"":302,""x"":911,""y"":373,""analysisTime"":39},{""startTime"":306,""x"":911,""y"":373,""analysisTime"":35},{""startTime"":352,""x"":928,""y"":381,""analysisTime"":40},{""startTime"":356,""x"":928,""y"":381,""analysisTime"":36},{""startTime"":403,""x"":893,""y"":315,""analysisTime"":37},{""startTime"":407,""x"":893,""y"":315,""analysisTime"":33},{""startTime"":451,""x"":935,""y"":366,""analysisTime"":40},{""startTime"":455,""x"":849,""y"":407,""analysisTime"":36},{""startTime"":502,""x"":890,""y"":385,""analysisTime"":39},{""startTime"":506,""x"":890,""y"":385,""analysisTime"":35},{""startTime"":552,""x"":875,""y"":370,""analysisTime"":37},{""startTime"":556,""x"":875,""y"":370,""analysisTime"":33},{""startTime"":600,""x"":995,""y"":338,""analysisTime"":41},{""startTime"":604,""x"":995,""y"":338,""analysisTime"":37},{""startTime"":652,""x"":920,""y"":395,""analysisTime"":39},{""startTime"":656,""x"":920,""y"":395,""analysisTime"":35},{""startTime"":703,""x"":869,""y"":415,""analysisTime"":38},{""startTime"":707,""x"":963,""y"":343,""analysisTime"":34},{""startTime"":752,""x"":995,""y"":366,""analysisTime"":39},{""startTime"":755,""x"":995,""y"":366,""analysisTime"":36},{""startTime"":802,""x"":909,""y"":430,""analysisTime"":40},{""startTime"":806,""x"":866,""y"":424,""analysisTime"":36},{""startTime"":852,""x"":951,""y"":408,""analysisTime"":39},{""startTime"":856,""x"":951,""y"":408,""analysisTime"":35},{""startTime"":902,""x"":1004,""y"":384,""analysisTime"":39},{""startTime"":906,""x"":924,""y"":358,""analysisTime"":35},{""startTime"":952,""x"":947,""y"":380,""analysisTime"":39},{""startTime"":957,""x"":947,""y"":380,""analysisTime"":34},{""startTime"":1002,""x"":829,""y"":379,""analysisTime"":37},{""startTime"":1008,""x"":829,""y"":379,""analysisTime"":31},{""startTime"":1050,""x"":813,""y"":383,""analysisTime"":47},{""startTime"":1061,""x"":813,""y"":383,""analysisTime"":36},{""startTime"":1114,""x"":816,""y"":393,""analysisTime"":63},{""startTime"":1118,""x"":821,""y"":450,""analysisTime"":59},{""startTime"":1188,""x"":872,""y"":385,""analysisTime"":37},{""startTime"":1193,""x"":872,""y"":385,""analysisTime"":32},{""startTime"":1237,""x"":773,""y"":450,""analysisTime"":37},{""startTime"":1241,""x"":773,""y"":450,""analysisTime"":33},{""startTime"":1284,""x"":877,""y"":417,""analysisTime"":42},{""startTime"":1289,""x"":809,""y"":435,""analysisTime"":37},{""startTime"":1337,""x"":950,""y"":437,""analysisTime"":37},{""startTime"":1342,""x"":950,""y"":437,""analysisTime"":32},{""startTime"":1385,""x"":940,""y"":439,""analysisTime"":37},{""startTime"":1390,""x"":940,""y"":439,""analysisTime"":32},{""startTime"":1433,""x"":972,""y"":494,""analysisTime"":41},{""startTime"":1438,""x"":972,""y"":494,""analysisTime"":36},{""startTime"":1485,""x"":969,""y"":485,""analysisTime"":39},{""startTime"":1490,""x"":969,""y"":485,""analysisTime"":34},{""startTime"":1535,""x"":891,""y"":465,""analysisTime"":39},{""startTime"":1539,""x"":891,""y"":465,""analysisTime"":35},{""startTime"":1585,""x"":896,""y"":431,""analysisTime"":40},{""startTime"":1589,""x"":896,""y"":431,""analysisTime"":36},{""startTime"":1637,""x"":810,""y"":431,""analysisTime"":36},{""startTime"":1641,""x"":882,""y"":425,""analysisTime"":32},{""startTime"":1684,""x"":753,""y"":428,""analysisTime"":37},{""startTime"":1688,""x"":753,""y"":428,""analysisTime"":33},{""startTime"":1732,""x"":403,""y"":248,""analysisTime"":42},{""startTime"":1737,""x"":514,""y"":321,""analysisTime"":37},{""startTime"":1785,""x"":547,""y"":330,""analysisTime"":38},{""startTime"":1789,""x"":528,""y"":255,""analysisTime"":34},{""startTime"":1834,""x"":641,""y"":246,""analysisTime"":39},{""startTime"":1838,""x"":641,""y"":246,""analysisTime"":35},{""startTime"":1883,""x"":622,""y"":219,""analysisTime"":42},{""startTime"":1889,""x"":541,""y"":240,""analysisTime"":36},{""startTime"":1937,""x"":641,""y"":220,""analysisTime"":37},{""startTime"":1943,""x"":641,""y"":220,""analysisTime"":31},{""startTime"":1984,""x"":685,""y"":234,""analysisTime"":40},{""startTime"":1989,""x"":685,""y"":234,""analysisTime"":35},{""startTime"":2035,""x"":637,""y"":229,""analysisTime"":39},{""startTime"":2039,""x"":637,""y"":229,""analysisTime"":35},{""startTime"":2085,""x"":584,""y"":205,""analysisTime"":39},{""startTime"":2090,""x"":584,""y"":205,""analysisTime"":34},{""startTime"":2136,""x"":550,""y"":196,""analysisTime"":39},{""startTime"":2140,""x"":550,""y"":196,""analysisTime"":35},{""startTime"":2186,""x"":534,""y"":240,""analysisTime"":38},{""startTime"":2190,""x"":538,""y"":233,""analysisTime"":34},{""startTime"":2235,""x"":643,""y"":257,""analysisTime"":39},{""startTime"":2239,""x"":643,""y"":257,""analysisTime"":35},{""startTime"":2284,""x"":532,""y"":242,""analysisTime"":39},{""startTime"":2289,""x"":532,""y"":242,""analysisTime"":34},{""startTime"":2335,""x"":516,""y"":215,""analysisTime"":40},{""startTime"":2339,""x"":516,""y"":215,""analysisTime"":36},{""startTime"":2387,""x"":579,""y"":239,""analysisTime"":37},{""startTime"":2391,""x"":579,""y"":239,""analysisTime"":33},{""startTime"":2436,""x"":522,""y"":213,""analysisTime"":37},{""startTime"":2440,""x"":562,""y"":272,""analysisTime"":33},{""startTime"":2484,""x"":537,""y"":190,""analysisTime"":42},{""startTime"":2489,""x"":537,""y"":190,""analysisTime"":37},{""startTime"":2537,""x"":586,""y"":136,""analysisTime"":37},{""startTime"":2542,""x"":586,""y"":136,""analysisTime"":32},{""startTime"":2585,""x"":646,""y"":145,""analysisTime"":39},{""startTime"":2589,""x"":632,""y"":132,""analysisTime"":35},{""startTime"":2635,""x"":548,""y"":202,""analysisTime"":39},{""startTime"":2640,""x"":579,""y"":180,""analysisTime"":34},{""startTime"":2684,""x"":572,""y"":157,""analysisTime"":41},{""startTime"":2689,""x"":593,""y"":163,""analysisTime"":36}]","./img/birds/bird1.jpeg","./img/birds/bird2.jpeg","{""LstimTop"":226.5,""LstimBot"":544.5,""LstimLeft"":240,""LstimRight"":720,""RstimTop"":226.5,""RstimBot"":544.5,""RstimLeft"":720,""RstimRight"":1200}","{""key"":""j"",""rt"":2747}","","","","","","","","","","","","","","","","","","","","","","","","","",""
"Double-Image-Key","31","64785","0.0-10.0-0.2","","","","","","","","","","","","","","","","","","","","","","","","1440","718","","","","","","","","","","","","","","","[{""startTime"":2736,""x"":587,""y"":160,""analysisTime"":73},{""startTime"":0,""x"":587,""y"":160,""analysisTime"":70},{""startTime"":8,""x"":587,""y"":160,""analysisTime"":62},{""startTime"":75,""x"":586,""y"":175,""analysisTime"":59},{""startTime"":80,""x"":586,""y"":175,""analysisTime"":54},{""startTime"":84,""x"":586,""y"":175,""analysisTime"":50},{""startTime"":146,""x"":678,""y"":182,""analysisTime"":52},{""startTime"":150,""x"":636,""y"":165,""analysisTime"":48},{""startTime"":154,""x"":639,""y"":212,""analysisTime"":44},{""startTime"":210,""x"":508,""y"":294,""analysisTime"":52},{""startTime"":214,""x"":508,""y"":294,""analysisTime"":48},{""startTime"":218,""x"":508,""y"":294,""analysisTime"":44},{""startTime"":274,""x"":570,""y"":219,""analysisTime"":52},{""startTime"":278,""x"":570,""y"":219,""analysisTime"":48},{""startTime"":282,""x"":570,""y"":219,""analysisTime"":44},{""startTime"":337,""x"":393,""y"":174,""analysisTime"":53},{""startTime"":341,""x"":393,""y"":174,""analysisTime"":49},{""startTime"":346,""x"":393,""y"":174,""analysisTime"":44},{""startTime"":401,""x"":460,""y"":169,""analysisTime"":51},{""startTime"":406,""x"":460,""y"":169,""analysisTime"":46},{""startTime"":410,""x"":460,""y"":169,""analysisTime"":42},{""startTime"":464,""x"":498,""y"":199,""analysisTime"":51},{""startTime"":468,""x"":549,""y"":164,""analysisTime"":47},{""startTime"":473,""x"":549,""y"":164,""analysisTime"":42},{""startTime"":526,""x"":550,""y"":189,""analysisTime"":52},{""startTime"":531,""x"":550,""y"":189,""analysisTime"":47},{""startTime"":535,""x"":550,""y"":189,""analysisTime"":43},{""startTime"":589,""x"":567,""y"":214,""analysisTime"":51},{""startTime"":594,""x"":567,""y"":214,""analysisTime"":46},{""startTime"":598,""x"":567,""y"":214,""analysisTime"":42},{""startTime"":652,""x"":530,""y"":250,""analysisTime"":52},{""startTime"":657,""x"":530,""y"":250,""analysisTime"":47},{""startTime"":660,""x"":530,""y"":250,""analysisTime"":44},{""startTime"":715,""x"":527,""y"":182,""analysisTime"":52},{""startTime"":719,""x"":527,""y"":182,""analysisTime"":49},{""startTime"":724,""x"":527,""y"":182,""analysisTime"":44},{""startTime"":779,""x"":545,""y"":213,""analysisTime"":53},{""startTime"":783,""x"":545,""y"":213,""analysisTime"":49},{""startTime"":787,""x"":545,""y"":213,""analysisTime"":45},{""startTime"":844,""x"":657,""y"":603,""analysisTime"":51},{""startTime"":848,""x"":657,""y"":603,""analysisTime"":47},{""startTime"":852,""x"":657,""y"":603,""analysisTime"":43},{""startTime"":906,""x"":527,""y"":469,""analysisTime"":52},{""startTime"":910,""x"":527,""y"":469,""analysisTime"":48},{""startTime"":914,""x"":527,""y"":469,""analysisTime"":44},{""startTime"":969,""x"":486,""y"":281,""analysisTime"":51},{""startTime"":973,""x"":486,""y"":281,""analysisTime"":47},{""startTime"":978,""x"":511,""y"":240,""analysisTime"":42},{""startTime"":1032,""x"":520,""y"":265,""analysisTime"":51},{""startTime"":1036,""x"":520,""y"":265,""analysisTime"":47},{""startTime"":1040,""x"":520,""y"":265,""analysisTime"":43},{""startTime"":1093,""x"":469,""y"":240,""analysisTime"":54},{""startTime"":1098,""x"":469,""y"":240,""analysisTime"":49},{""startTime"":1103,""x"":469,""y"":240,""analysisTime"":44},{""startTime"":1159,""x"":589,""y"":222,""analysisTime"":52},{""startTime"":1163,""x"":604,""y"":164,""analysisTime"":48},{""startTime"":1167,""x"":598,""y"":275,""analysisTime"":44},{""startTime"":1222,""x"":581,""y"":189,""analysisTime"":53},{""startTime"":1227,""x"":644,""y"":181,""analysisTime"":48},{""startTime"":1231,""x"":581,""y"":189,""analysisTime"":44},{""startTime"":1287,""x"":532,""y"":244,""analysisTime"":53},{""startTime"":1292,""x"":532,""y"":244,""analysisTime"":48},{""startTime"":1296,""x"":555,""y"":216,""analysisTime"":44},{""startTime"":1351,""x"":576,""y"":187,""analysisTime"":53},{""startTime"":1355,""x"":576,""y"":187,""analysisTime"":49},{""startTime"":1360,""x"":576,""y"":187,""analysisTime"":44},{""startTime"":1415,""x"":985,""y"":446,""analysisTime"":52},{""startTime"":1419,""x"":985,""y"":446,""analysisTime"":48},{""startTime"":1423,""x"":947,""y"":431,""analysisTime"":44},{""startTime"":1478,""x"":1141,""y"":406,""analysisTime"":53},{""startTime"":1482,""x"":1141,""y"":406,""analysisTime"":49},{""startTime"":1486,""x"":1141,""y"":406,""analysisTime"":45},{""startTime"":1542,""x"":1096,""y"":321,""analysisTime"":53},{""startTime"":1546,""x"":1096,""y"":321,""analysisTime"":49},{""startTime"":1550,""x"":1096,""y"":321,""analysisTime"":45},{""startTime"":1605,""x"":1061,""y"":322,""analysisTime"":69},{""startTime"":1612,""x"":1061,""y"":322,""analysisTime"":71},{""startTime"":1619,""x"":1061,""y"":322,""analysisTime"":64},{""startTime"":1688,""x"":1008,""y"":323,""analysisTime"":59},{""startTime"":1693,""x"":1008,""y"":323,""analysisTime"":54},{""startTime"":1697,""x"":1008,""y"":323,""analysisTime"":50},{""startTime"":1758,""x"":946,""y"":323,""analysisTime"":52},{""startTime"":1762,""x"":888,""y"":343,""analysisTime"":48},{""startTime"":1766,""x"":888,""y"":343,""analysisTime"":44},{""startTime"":1821,""x"":933,""y"":346,""analysisTime"":52},{""startTime"":1825,""x"":943,""y"":321,""analysisTime"":48},{""startTime"":1829,""x"":933,""y"":346,""analysisTime"":44}]","./img/birds/bird3.jpeg","./img/birds/bird4.jpeg","{""LstimTop"":226.5,""LstimBot"":544.5,""LstimLeft"":240,""LstimRight"":720,""RstimTop"":226.5,""RstimBot"":544.5,""RstimLeft"":720,""RstimRight"":1200}","{""key"":""j"",""rt"":1924}","","","","","","","","","","","","","","","","","","","","","","","","","",""
"Double-Image-Key","32","66569","0.0-10.0-0.3","","","","","","","","","","","","","","","","","","","","","","","","1440","718","","","","","","","","","","","","","","","[{""startTime"":1884,""x"":983,""y"":308,""analysisTime"":80},{""startTime"":1889,""x"":983,""y"":308,""analysisTime"":75},{""startTime"":1892,""x"":983,""y"":308,""analysisTime"":72},{""startTime"":0,""x"":983,""y"":308,""analysisTime"":47},{""startTime"":54,""x"":910,""y"":372,""analysisTime"":68},{""startTime"":57,""x"":910,""y"":372,""analysisTime"":65},{""startTime"":61,""x"":910,""y"":372,""analysisTime"":61},{""startTime"":99,""x"":968,""y"":313,""analysisTime"":40},{""startTime"":143,""x"":931,""y"":280,""analysisTime"":72},{""startTime"":148,""x"":931,""y"":280,""analysisTime"":67},{""startTime"":152,""x"":931,""y"":280,""analysisTime"":63},{""startTime"":185,""x"":931,""y"":280,""analysisTime"":38},{""startTime"":230,""x"":965,""y"":299,""analysisTime"":68},{""startTime"":233,""x"":965,""y"":299,""analysisTime"":65},{""startTime"":237,""x"":965,""y"":299,""analysisTime"":61},{""startTime"":275,""x"":936,""y"":292,""analysisTime"":39},{""startTime"":314,""x"":936,""y"":292,""analysisTime"":62},{""startTime"":319,""x"":936,""y"":292,""analysisTime"":57},{""startTime"":323,""x"":936,""y"":292,""analysisTime"":53},{""startTime"":352,""x"":949,""y"":304,""analysisTime"":41},{""startTime"":393,""x"":983,""y"":280,""analysisTime"":62},{""startTime"":398,""x"":983,""y"":280,""analysisTime"":57},{""startTime"":402,""x"":983,""y"":280,""analysisTime"":53},{""startTime"":432,""x"":1029,""y"":351,""analysisTime"":40},{""startTime"":472,""x"":1056,""y"":318,""analysisTime"":62},{""startTime"":476,""x"":1056,""y"":318,""analysisTime"":58},{""startTime"":480,""x"":1056,""y"":318,""analysisTime"":54},{""startTime"":511,""x"":1012,""y"":340,""analysisTime"":40},{""startTime"":551,""x"":958,""y"":289,""analysisTime"":58},{""startTime"":555,""x"":958,""y"":289,""analysisTime"":54},{""startTime"":578,""x"":958,""y"":342,""analysisTime"":52},{""startTime"":583,""x"":958,""y"":342,""analysisTime"":47},{""startTime"":634,""x"":1015,""y"":305,""analysisTime"":68},{""startTime"":638,""x"":1015,""y"":305,""analysisTime"":64},{""startTime"":664,""x"":987,""y"":349,""analysisTime"":50},{""startTime"":668,""x"":959,""y"":336,""analysisTime"":46},{""startTime"":714,""x"":974,""y"":348,""analysisTime"":45},{""startTime"":719,""x"":974,""y"":348,""analysisTime"":40},{""startTime"":759,""x"":974,""y"":348,""analysisTime"":58},{""startTime"":763,""x"":974,""y"":348,""analysisTime"":54},{""startTime"":786,""x"":991,""y"":307,""analysisTime"":51},{""startTime"":790,""x"":988,""y"":286,""analysisTime"":47},{""startTime"":838,""x"":988,""y"":286,""analysisTime"":57},{""startTime"":842,""x"":988,""y"":286,""analysisTime"":53},{""startTime"":865,""x"":1017,""y"":355,""analysisTime"":51},{""startTime"":869,""x"":1017,""y"":355,""analysisTime"":47},{""startTime"":921,""x"":842,""y"":433,""analysisTime"":68},{""startTime"":925,""x"":894,""y"":397,""analysisTime"":64},{""startTime"":951,""x"":917,""y"":375,""analysisTime"":50},{""startTime"":955,""x"":917,""y"":375,""analysisTime"":46},{""startTime"":1001,""x"":795,""y"":672,""analysisTime"":45},{""startTime"":1006,""x"":795,""y"":672,""analysisTime"":40},{""startTime"":1046,""x"":780,""y"":698,""analysisTime"":59},{""startTime"":1051,""x"":806,""y"":702,""analysisTime"":54},{""startTime"":1073,""x"":534,""y"":425,""analysisTime"":52},{""startTime"":1078,""x"":534,""y"":425,""analysisTime"":47},{""startTime"":1129,""x"":505,""y"":331,""analysisTime"":69},{""startTime"":1134,""x"":505,""y"":331,""analysisTime"":64},{""startTime"":1160,""x"":505,""y"":331,""analysisTime"":51},{""startTime"":1163,""x"":505,""y"":331,""analysisTime"":48},{""startTime"":1211,""x"":542,""y"":259,""analysisTime"":50},{""startTime"":1215,""x"":542,""y"":259,""analysisTime"":46},{""startTime"":1261,""x"":542,""y"":259,""analysisTime"":82},{""startTime"":1266,""x"":542,""y"":259,""analysisTime"":77},{""startTime"":1310,""x"":557,""y"":295,""analysisTime"":53},{""startTime"":1314,""x"":557,""y"":295,""analysisTime"":49},{""startTime"":1363,""x"":559,""y"":281,""analysisTime"":58},{""startTime"":1367,""x"":559,""y"":281,""analysisTime"":54},{""startTime"":1390,""x"":705,""y"":691,""analysisTime"":52},{""startTime"":1395,""x"":705,""y"":691,""analysisTime"":47},{""startTime"":1446,""x"":710,""y"":593,""analysisTime"":70},{""startTime"":1450,""x"":725,""y"":685,""analysisTime"":66},{""startTime"":1478,""x"":752,""y"":674,""analysisTime"":50},{""startTime"":1482,""x"":812,""y"":663,""analysisTime"":46},{""startTime"":1528,""x"":503,""y"":401,""analysisTime"":45},{""startTime"":1533,""x"":574,""y"":409,""analysisTime"":40},{""startTime"":1573,""x"":574,""y"":409,""analysisTime"":57},{""startTime"":1577,""x"":611,""y"":490,""analysisTime"":53},{""startTime"":1599,""x"":482,""y"":254,""analysisTime"":51},{""startTime"":1603,""x"":482,""y"":254,""analysisTime"":47},{""startTime"":1654,""x"":650,""y"":316,""analysisTime"":68},{""startTime"":1658,""x"":650,""y"":316,""analysisTime"":64},{""startTime"":1684,""x"":630,""y"":324,""analysisTime"":50},{""startTime"":1688,""x"":630,""y"":324,""analysisTime"":46},{""startTime"":1734,""x"":541,""y"":309,""analysisTime"":45},{""startTime"":1739,""x"":541,""y"":309,""analysisTime"":40}]","./img/birds/bird7.jpeg","./img/birds/bird8.jpeg","{""LstimTop"":226.5,""LstimBot"":544.5,""LstimLeft"":240,""LstimRight"":720,""RstimTop"":226.5,""RstimBot"":544.5,""RstimLeft"":720,""RstimRight"":1200}","{""key"":""j"",""rt"":1783}","","","","","","","","","","","","","","","","","","","","","","","","","",""
"Double-Image-Key","33","67940","0.0-10.0-0.4","","","","","","","","","","","","","","","","","","","","","","","","1440","718","","","","","","","","","","","","","","","[{""startTime"":1779,""x"":570,""y"":247,""analysisTime"":90},{""startTime"":0,""x"":570,""y"":247,""analysisTime"":85},{""startTime"":4,""x"":570,""y"":247,""analysisTime"":81},{""startTime"":35,""x"":570,""y"":247,""analysisTime"":62},{""startTime"":39,""x"":570,""y"":247,""analysisTime"":58},{""startTime"":97,""x"":491,""y"":289,""analysisTime"":61},{""startTime"":102,""x"":491,""y"":289,""analysisTime"":56},{""startTime"":105,""x"":491,""y"":289,""analysisTime"":53},{""startTime"":158,""x"":587,""y"":277,""analysisTime"":84},{""startTime"":162,""x"":587,""y"":277,""analysisTime"":80},{""startTime"":185,""x"":587,""y"":277,""analysisTime"":73},{""startTime"":204,""x"":587,""y"":277,""analysisTime"":54},{""startTime"":208,""x"":587,""y"":277,""analysisTime"":50},{""startTime"":258,""x"":587,""y"":259,""analysisTime"":46},{""startTime"":263,""x"":587,""y"":259,""analysisTime"":41},{""startTime"":304,""x"":599,""y"":299,""analysisTime"":72},{""startTime"":308,""x"":587,""y"":259,""analysisTime"":68},{""startTime"":312,""x"":587,""y"":259,""analysisTime"":64},{""startTime"":342,""x"":524,""y"":250,""analysisTime"":55},{""startTime"":346,""x"":524,""y"":250,""analysisTime"":51},{""startTime"":402,""x"":565,""y"":270,""analysisTime"":84},{""startTime"":406,""x"":565,""y"":270,""analysisTime"":80},{""startTime"":410,""x"":565,""y"":270,""analysisTime"":76},{""startTime"":444,""x"":565,""y"":270,""analysisTime"":54},{""startTime"":448,""x"":565,""y"":270,""analysisTime"":50},{""startTime"":498,""x"":646,""y"":377,""analysisTime"":60},{""startTime"":502,""x"":634,""y"":405,""analysisTime"":56},{""startTime"":506,""x"":646,""y"":377,""analysisTime"":52},{""startTime"":559,""x"":592,""y"":378,""analysisTime"":69},{""startTime"":563,""x"":592,""y"":378,""analysisTime"":65},{""startTime"":585,""x"":660,""y"":408,""analysisTime"":68},{""startTime"":589,""x"":660,""y"":408,""analysisTime"":64},{""startTime"":593,""x"":660,""y"":408,""analysisTime"":60},{""startTime"":657,""x"":513,""y"":284,""analysisTime"":63},{""startTime"":661,""x"":597,""y"":298,""analysisTime"":87},{""startTime"":666,""x"":527,""y"":264,""analysisTime"":82},{""startTime"":669,""x"":527,""y"":264,""analysisTime"":79},{""startTime"":673,""x"":519,""y"":271,""analysisTime"":75},{""startTime"":748,""x"":527,""y"":264,""analysisTime"":20},{""startTime"":768,""x"":728,""y"":539,""analysisTime"":72},{""startTime"":772,""x"":728,""y"":539,""analysisTime"":68},{""startTime"":776,""x"":730,""y"":479,""analysisTime"":64},{""startTime"":810,""x"":874,""y"":468,""analysisTime"":49},{""startTime"":840,""x"":926,""y"":438,""analysisTime"":23},{""startTime"":863,""x"":955,""y"":388,""analysisTime"":69},{""startTime"":867,""x"":1051,""y"":380,""analysisTime"":65},{""startTime"":894,""x"":955,""y"":388,""analysisTime"":61},{""startTime"":898,""x"":955,""y"":388,""analysisTime"":57},{""startTime"":932,""x"":955,""y"":388,""analysisTime"":28},{""startTime"":960,""x"":870,""y"":391,""analysisTime"":75},{""startTime"":964,""x"":870,""y"":391,""analysisTime"":71},{""startTime"":991,""x"":922,""y"":415,""analysisTime"":86},{""startTime"":1000,""x"":922,""y"":415,""analysisTime"":77},{""startTime"":1035,""x"":986,""y"":389,""analysisTime"":81},{""startTime"":1084,""x"":986,""y"":389,""analysisTime"":66},{""startTime"":1088,""x"":986,""y"":389,""analysisTime"":62},{""startTime"":1117,""x"":986,""y"":389,""analysisTime"":51},{""startTime"":1121,""x"":986,""y"":389,""analysisTime"":48},{""startTime"":1150,""x"":1033,""y"":629,""analysisTime"":35},{""startTime"":1185,""x"":886,""y"":783,""analysisTime"":68},{""startTime"":1189,""x"":903,""y"":730,""analysisTime"":64},{""startTime"":1211,""x"":872,""y"":602,""analysisTime"":66},{""startTime"":1215,""x"":803,""y"":566,""analysisTime"":62},{""startTime"":1219,""x"":872,""y"":602,""analysisTime"":58},{""startTime"":1277,""x"":978,""y"":638,""analysisTime"":69},{""startTime"":1281,""x"":893,""y"":589,""analysisTime"":65},{""startTime"":1304,""x"":948,""y"":399,""analysisTime"":67},{""startTime"":1308,""x"":900,""y"":442,""analysisTime"":63},{""startTime"":1311,""x"":900,""y"":442,""analysisTime"":60}]","./img/birds/bird9.jpeg","./img/birds/bird10.jpeg","{""LstimTop"":226.5,""LstimBot"":544.5,""LstimLeft"":240,""LstimRight"":720,""RstimTop"":226.5,""RstimBot"":544.5,""RstimLeft"":720,""RstimRight"":1200}","{""key"":""j"",""rt"":1371}","","","","","","","","","","","","","","","","","","","","","","","","","",""
"html-keyboard-response","34","69231","0.0-11.0","","","","","","","","","","","","","","","","","1291","DOUBLE-VISION-KEY trials are completed. <p>The next set of trials will demonstrate the DOUBLE-IMAGE-DURATION trial type.</p><p>Trials will end after 1000ms. You do not need to provide a key or gaze response.</p> <p>To proceed to the trials, press the [space] key.</p>"," ","","","","","","","","","","","","","","","","","","","","","","","","","","","","","","","","","","","","","","","","","","","","","","","","","","",""
"Double-Image-Duration","35","70283","0.0-12.0-0.0","","","","","","","","","","","","","","","","","","","","","","","","1440","718","","","","","","","","","","","","","","","","","","","","[{""startTime"":0,""x"":767,""y"":425,""analysisTime"":42},{""startTime"":53,""x"":746,""y"":411,""analysisTime"":27},{""startTime"":97,""x"":840,""y"":395,""analysisTime"":40},{""startTime"":147,""x"":802,""y"":447,""analysisTime"":38},{""startTime"":197,""x"":785,""y"":442,""analysisTime"":37},{""startTime"":244,""x"":750,""y"":430,""analysisTime"":26},{""startTime"":281,""x"":1034,""y"":382,""analysisTime"":34},{""startTime"":325,""x"":1002,""y"":347,""analysisTime"":40},{""startTime"":375,""x"":962,""y"":321,""analysisTime"":39},{""startTime"":425,""x"":1027,""y"":321,""analysisTime"":38},{""startTime"":473,""x"":926,""y"":383,""analysisTime"":40},{""startTime"":542,""x"":910,""y"":400,""analysisTime"":30},{""startTime"":582,""x"":989,""y"":351,""analysisTime"":38},{""startTime"":631,""x"":923,""y"":360,""analysisTime"":39},{""startTime"":680,""x"":994,""y"":345,""analysisTime"":39},{""startTime"":729,""x"":992,""y"":304,""analysisTime"":39},{""startTime"":780,""x"":1005,""y"":397,""analysisTime"":30},{""startTime"":821,""x"":989,""y"":393,""analysisTime"":26},{""startTime"":863,""x"":972,""y"":357,""analysisTime"":42},{""startTime"":915,""x"":926,""y"":351,""analysisTime"":39},{""startTime"":965,""x"":917,""y"":355,""analysisTime"":37},{""startTime"":1012,""x"":897,""y"":386,""analysisTime"":39}]","./img/birds/bird5.jpeg","./img/birds/bird6.jpeg","544.5","255","705","226.5","544.5","705","1185","226.5","","","","","","","","","","","","","","",""
"Double-Image-Duration","36","71364","0.0-12.0-0.1","","","","","","","","","","","","","","","","","","","","","","","","1440","718","","","","","","","","","","","","","","","","","","","","[{""startTime"":0,""x"":964,""y"":386,""analysisTime"":20},{""startTime"":31,""x"":811,""y"":649,""analysisTime"":35},{""startTime"":77,""x"":884,""y"":615,""analysisTime"":37},{""startTime"":124,""x"":949,""y"":464,""analysisTime"":39},{""startTime"":174,""x"":945,""y"":516,""analysisTime"":25},{""startTime"":211,""x"":926,""y"":440,""analysisTime"":38},{""startTime"":260,""x"":785,""y"":443,""analysisTime"":39},{""startTime"":310,""x"":715,""y"":429,""analysisTime"":38},{""startTime"":359,""x"":772,""y"":411,""analysisTime"":37},{""startTime"":407,""x"":878,""y"":348,""analysisTime"":38},{""startTime"":455,""x"":642,""y"":391,""analysisTime"":26},{""startTime"":492,""x"":619,""y"":211,""analysisTime"":38},{""startTime"":540,""x"":506,""y"":184,""analysisTime"":39},{""startTime"":589,""x"":610,""y"":251,""analysisTime"":26},{""startTime"":628,""x"":560,""y"":301,""analysisTime"":39},{""startTime"":677,""x"":428,""y"":244,""analysisTime"":39},{""startTime"":726,""x"":522,""y"":220,""analysisTime"":39},{""startTime"":775,""x"":522,""y"":220,""analysisTime"":26},{""startTime"":812,""x"":543,""y"":207,""analysisTime"":34},{""startTime"":857,""x"":577,""y"":206,""analysisTime"":38},{""startTime"":905,""x"":629,""y"":158,""analysisTime"":26},{""startTime"":943,""x"":561,""y"":190,""analysisTime"":38},{""startTime"":992,""x"":650,""y"":236,""analysisTime"":39},{""startTime"":1042,""x"":585,""y"":185,""analysisTime"":38}]","./img/birds/bird9.jpeg","./img/birds/bird10.jpeg","544.5","255","705","226.5","544.5","705","1185","226.5","","","","","","","","","","","","","","",""
"Double-Image-Duration","37","72413","0.0-12.0-0.2","","","","","","","","","","","","","","","","","","","","","","","","1440","718","","","","","","","","","","","","","","","","","","","","[{""startTime"":0,""x"":585,""y"":185,""analysisTime"":20},{""startTime"":34,""x"":535,""y"":187,""analysisTime"":51},{""startTime"":95,""x"":598,""y"":191,""analysisTime"":22},{""startTime"":130,""x"":724,""y"":142,""analysisTime"":39},{""startTime"":180,""x"":622,""y"":154,""analysisTime"":39},{""startTime"":230,""x"":648,""y"":156,""analysisTime"":38},{""startTime"":279,""x"":576,""y"":143,""analysisTime"":38},{""startTime"":328,""x"":575,""y"":204,""analysisTime"":38},{""startTime"":377,""x"":515,""y"":177,""analysisTime"":39},{""startTime"":426,""x"":600,""y"":177,""analysisTime"":38},{""startTime"":474,""x"":537,""y"":242,""analysisTime"":27},{""startTime"":513,""x"":669,""y"":176,""analysisTime"":38},{""startTime"":562,""x"":684,""y"":200,""analysisTime"":38},{""startTime"":610,""x"":569,""y"":270,""analysisTime"":39},{""startTime"":660,""x"":575,""y"":166,""analysisTime"":25},{""startTime"":695,""x"":534,""y"":168,""analysisTime"":34},{""startTime"":740,""x"":516,""y"":161,""analysisTime"":25},{""startTime"":779,""x"":592,""y"":169,""analysisTime"":39},{""startTime"":829,""x"":474,""y"":184,""analysisTime"":37},{""startTime"":876,""x"":541,""y"":219,""analysisTime"":39},{""startTime"":925,""x"":616,""y"":187,""analysisTime"":26},{""startTime"":962,""x"":529,""y"":230,""analysisTime"":39},{""startTime"":1011,""x"":609,""y"":251,""analysisTime"":37}]","./img/birds/bird7.jpeg","./img/birds/bird8.jpeg","544.5","255","705","226.5","544.5","705","1185","226.5","","","","","","","","","","","","","","",""
"Double-Image-Duration","38","73482","0.0-12.0-0.3","","","","","","","","","","","","","","","","","","","","","","","","1440","718","","","","","","","","","","","","","","","","","","","","[{""startTime"":0,""x"":522,""y"":221,""analysisTime"":20},{""startTime"":31,""x"":561,""y"":187,""analysisTime"":39},{""startTime"":80,""x"":588,""y"":218,""analysisTime"":39},{""startTime"":129,""x"":507,""y"":220,""analysisTime"":39},{""startTime"":179,""x"":556,""y"":227,""analysisTime"":37},{""startTime"":226,""x"":646,""y"":372,""analysisTime"":39},{""startTime"":276,""x"":843,""y"":429,""analysisTime"":37},{""startTime"":324,""x"":747,""y"":357,""analysisTime"":26},{""startTime"":364,""x"":843,""y"":391,""analysisTime"":39},{""startTime"":413,""x"":837,""y"":393,""analysisTime"":39},{""startTime"":464,""x"":867,""y"":404,""analysisTime"":30},{""startTime"":505,""x"":839,""y"":464,""analysisTime"":26},{""startTime"":547,""x"":887,""y"":465,""analysisTime"":39},{""startTime"":597,""x"":838,""y"":447,""analysisTime"":38},{""startTime"":646,""x"":893,""y"":447,""analysisTime"":41},{""startTime"":717,""x"":881,""y"":435,""analysisTime"":31},{""startTime"":758,""x"":872,""y"":368,""analysisTime"":39},{""startTime"":807,""x"":901,""y"":367,""analysisTime"":38},{""startTime"":856,""x"":933,""y"":385,""analysisTime"":26},{""startTime"":893,""x"":947,""y"":360,""analysisTime"":22},{""startTime"":931,""x"":957,""y"":374,""analysisTime"":39},{""startTime"":981,""x"":973,""y"":389,""analysisTime"":37},{""startTime"":1029,""x"":845,""y"":531,""analysisTime"":39}]","./img/birds/bird1.jpeg","./img/birds/bird2.jpeg","544.5","255","705","226.5","544.5","705","1185","226.5","","","","","","","","","","","","","","",""
"Double-Image-Duration","39","74550","0.0-12.0-0.4","","","","","","","","","","","","","","","","","","","","","","","","1440","718","","","","","","","","","","","","","","","","","","","","[{""startTime"":0,""x"":918,""y"":405,""analysisTime"":19},{""startTime"":30,""x"":942,""y"":330,""analysisTime"":39},{""startTime"":79,""x"":987,""y"":337,""analysisTime"":39},{""startTime"":129,""x"":969,""y"":383,""analysisTime"":38},{""startTime"":177,""x"":913,""y"":398,""analysisTime"":39},{""startTime"":226,""x"":924,""y"":396,""analysisTime"":39},{""startTime"":276,""x"":924,""y"":396,""analysisTime"":25},{""startTime"":313,""x"":904,""y"":443,""analysisTime"":39},{""startTime"":363,""x"":779,""y"":417,""analysisTime"":38},{""startTime"":411,""x"":541,""y"":375,""analysisTime"":40},{""startTime"":461,""x"":542,""y"":195,""analysisTime"":39},{""startTime"":511,""x"":606,""y"":209,""analysisTime"":37},{""startTime"":558,""x"":635,""y"":334,""analysisTime"":26},{""startTime"":597,""x"":772,""y"":683,""analysisTime"":38},{""startTime"":646,""x"":536,""y"":516,""analysisTime"":39},{""startTime"":695,""x"":456,""y"":245,""analysisTime"":39},{""startTime"":745,""x"":477,""y"":253,""analysisTime"":37},{""startTime"":792,""x"":565,""y"":165,""analysisTime"":39},{""startTime"":842,""x"":657,""y"":184,""analysisTime"":37},{""startTime"":889,""x"":647,""y"":284,""analysisTime"":26},{""startTime"":930,""x"":623,""y"":283,""analysisTime"":40},{""startTime"":980,""x"":621,""y"":260,""analysisTime"":39},{""startTime"":1029,""x"":609,""y"":233,""analysisTime"":39}]","./img/birds/bird3.jpeg","./img/birds/bird4.jpeg","544.5","255","705","226.5","544.5","705","1185","226.5","","","","","","","","","","","","","","",""
"html-keyboard-response","40","75809","0.0-13.0","","","","","","","","","","","","","","","","","1259","DOUBLE-VISION-DURATION trials are completed. <p>The next set of trials will demonstrate the <b>SINGLE</b>-IMAGE-KEY trial type.</p><p>To end a trial, you will need to provide a key response. Use the [spacebar] key to end a trial.</p> <p>To proceed to the trials, press the [space] key.</p>"," ","","","","","","","","","","","","","","","","","","","","","","","","","","","","","","","","","","","","","","","","","","","","","","","","","","",""
"Single-Image-Key","41","77800","0.0-14.0-0.0","","","","","","","","","","","","","","","","","","./img/birds/bird5.jpeg","","","","","","1440","718","","","","","","","","","","","","","","","","","","","","","","","","","","","","","","","[{""startTime"":0,""x"":859,""y"":415,""analysisTime"":36},{""startTime"":47,""x"":763,""y"":399,""analysisTime"":43},{""startTime"":101,""x"":732,""y"":429,""analysisTime"":32},{""startTime"":143,""x"":795,""y"":397,""analysisTime"":27},{""startTime"":185,""x"":743,""y"":381,""analysisTime"":39},{""startTime"":235,""x"":843,""y"":329,""analysisTime"":40},{""startTime"":285,""x"":805,""y"":325,""analysisTime"":38},{""startTime"":333,""x"":789,""y"":303,""analysisTime"":26},{""startTime"":371,""x"":797,""y"":329,""analysisTime"":33},{""startTime"":414,""x"":825,""y"":307,""analysisTime"":39},{""startTime"":464,""x"":878,""y"":343,""analysisTime"":38},{""startTime"":513,""x"":692,""y"":420,""analysisTime"":25},{""startTime"":551,""x"":642,""y"":392,""analysisTime"":39},{""startTime"":600,""x"":706,""y"":356,""analysisTime"":39},{""startTime"":649,""x"":726,""y"":373,""analysisTime"":39},{""startTime"":699,""x"":716,""y"":421,""analysisTime"":38},{""startTime"":748,""x"":710,""y"":420,""analysisTime"":25},{""startTime"":785,""x"":808,""y"":567,""analysisTime"":20},{""startTime"":818,""x"":667,""y"":523,""analysisTime"":39},{""startTime"":868,""x"":903,""y"":420,""analysisTime"":38},{""startTime"":916,""x"":870,""y"":418,""analysisTime"":38},{""startTime"":965,""x"":896,""y"":368,""analysisTime"":38},{""startTime"":1013,""x"":836,""y"":398,""analysisTime"":38},{""startTime"":1062,""x"":942,""y"":424,""analysisTime"":38},{""startTime"":1118,""x"":809,""y"":424,""analysisTime"":49},{""startTime"":1179,""x"":852,""y"":407,""analysisTime"":33},{""startTime"":1222,""x"":713,""y"":444,""analysisTime"":38},{""startTime"":1271,""x"":787,""y"":386,""analysisTime"":29},{""startTime"":1312,""x"":803,""y"":347,""analysisTime"":21},{""startTime"":1346,""x"":796,""y"":352,""analysisTime"":30},{""startTime"":1388,""x"":756,""y"":330,""analysisTime"":36},{""startTime"":1435,""x"":789,""y"":399,""analysisTime"":26},{""startTime"":1472,""x"":615,""y"":575,""analysisTime"":34},{""startTime"":1517,""x"":760,""y"":464,""analysisTime"":37},{""startTime"":1564,""x"":838,""y"":468,""analysisTime"":26},{""startTime"":1602,""x"":870,""y"":434,""analysisTime"":33},{""startTime"":1645,""x"":870,""y"":434,""analysisTime"":27},{""startTime"":1682,""x"":812,""y"":446,""analysisTime"":35},{""startTime"":1727,""x"":803,""y"":480,""analysisTime"":38},{""startTime"":1776,""x"":748,""y"":473,""analysisTime"":25},{""startTime"":1813,""x"":807,""y"":570,""analysisTime"":21},{""startTime"":1852,""x"":832,""y"":501,""analysisTime"":40},{""startTime"":1902,""x"":952,""y"":348,""analysisTime"":39},{""startTime"":1952,""x"":679,""y"":457,""analysisTime"":37}]","1126.5","226.5","495","1095","true","false","","","","","","","",""
"Single-Image-Key","42","79072","0.0-14.0-0.1","","","","","","","","","","","","","","","","","","./img/birds/bird3.jpeg","","","","","","1440","718","","","","","","","","","","","","","","","","","","","","","","","","","","","","","","","[{""startTime"":0,""x"":704,""y"":456,""analysisTime"":20},{""startTime"":20,""x"":692,""y"":456,""analysisTime"":29},{""startTime"":49,""x"":642,""y"":510,""analysisTime"":30},{""startTime"":79,""x"":799,""y"":377,""analysisTime"":18},{""startTime"":97,""x"":765,""y"":440,""analysisTime"":29},{""startTime"":126,""x"":716,""y"":465,""analysisTime"":20},{""startTime"":146,""x"":657,""y"":453,""analysisTime"":40},{""startTime"":165,""x"":657,""y"":453,""analysisTime"":29},{""startTime"":197,""x"":660,""y"":444,""analysisTime"":41},{""startTime"":217,""x"":660,""y"":444,""analysisTime"":29},{""startTime"":250,""x"":667,""y"":437,""analysisTime"":41},{""startTime"":270,""x"":667,""y"":437,""analysisTime"":30},{""startTime"":301,""x"":655,""y"":343,""analysisTime"":29},{""startTime"":330,""x"":655,""y"":343,""analysisTime"":19},{""startTime"":349,""x"":677,""y"":361,""analysisTime"":29},{""startTime"":378,""x"":677,""y"":361,""analysisTime"":19},{""startTime"":397,""x"":750,""y"":378,""analysisTime"":29},{""startTime"":426,""x"":701,""y"":356,""analysisTime"":20},{""startTime"":446,""x"":684,""y"":370,""analysisTime"":29},{""startTime"":475,""x"":798,""y"":339,""analysisTime"":19},{""startTime"":494,""x"":632,""y"":406,""analysisTime"":46},{""startTime"":505,""x"":632,""y"":406,""analysisTime"":35},{""startTime"":550,""x"":676,""y"":369,""analysisTime"":42},{""startTime"":554,""x"":676,""y"":369,""analysisTime"":38},{""startTime"":603,""x"":668,""y"":359,""analysisTime"":37},{""startTime"":607,""x"":668,""y"":359,""analysisTime"":33},{""startTime"":651,""x"":762,""y"":299,""analysisTime"":37},{""startTime"":655,""x"":762,""y"":299,""analysisTime"":33},{""startTime"":699,""x"":796,""y"":281,""analysisTime"":36},{""startTime"":703,""x"":691,""y"":290,""analysisTime"":32},{""startTime"":746,""x"":749,""y"":388,""analysisTime"":41},{""startTime"":750,""x"":749,""y"":388,""analysisTime"":37},{""startTime"":797,""x"":734,""y"":373,""analysisTime"":40},{""startTime"":804,""x"":734,""y"":373,""analysisTime"":33},{""startTime"":852,""x"":744,""y"":349,""analysisTime"":57},{""startTime"":856,""x"":744,""y"":349,""analysisTime"":53},{""startTime"":920,""x"":781,""y"":429,""analysisTime"":37},{""startTime"":924,""x"":824,""y"":484,""analysisTime"":33},{""startTime"":968,""x"":712,""y"":726,""analysisTime"":36},{""startTime"":972,""x"":712,""y"":726,""analysisTime"":32},{""startTime"":1016,""x"":835,""y"":703,""analysisTime"":35},{""startTime"":1020,""x"":944,""y"":712,""analysisTime"":31},{""startTime"":1063,""x"":768,""y"":691,""analysisTime"":36},{""startTime"":1067,""x"":768,""y"":691,""analysisTime"":32},{""startTime"":1111,""x"":719,""y"":678,""analysisTime"":42},{""startTime"":1115,""x"":719,""y"":678,""analysisTime"":38},{""startTime"":1163,""x"":809,""y"":620,""analysisTime"":39},{""startTime"":1167,""x"":809,""y"":620,""analysisTime"":35},{""startTime"":1213,""x"":782,""y"":639,""analysisTime"":39},{""startTime"":1217,""x"":782,""y"":639,""analysisTime"":35}]","1126.5","226.5","495","1095","true","false","","","","","","","",""
"Single-Image-Key","43","80508","0.0-14.0-0.2","","","","","","","","","","","","","","","","","","./img/birds/bird2.jpeg","","","","","","1440","718","","","","","","","","","","","","","","","","","","","","","","","","","","","","","","","[{""startTime"":1263,""x"":750,""y"":565,""analysisTime"":56},{""startTime"":1267,""x"":750,""y"":565,""analysisTime"":52},{""startTime"":0,""x"":750,""y"":565,""analysisTime"":47},{""startTime"":57,""x"":759,""y"":491,""analysisTime"":53},{""startTime"":62,""x"":759,""y"":491,""analysisTime"":48},{""startTime"":66,""x"":759,""y"":491,""analysisTime"":44},{""startTime"":120,""x"":801,""y"":471,""analysisTime"":53},{""startTime"":124,""x"":801,""y"":471,""analysisTime"":49},{""startTime"":128,""x"":801,""y"":471,""analysisTime"":45},{""startTime"":184,""x"":877,""y"":448,""analysisTime"":51},{""startTime"":188,""x"":877,""y"":448,""analysisTime"":47},{""startTime"":192,""x"":877,""y"":448,""analysisTime"":43},{""startTime"":246,""x"":890,""y"":494,""analysisTime"":52},{""startTime"":250,""x"":890,""y"":494,""analysisTime"":48},{""startTime"":254,""x"":890,""y"":494,""analysisTime"":44},{""startTime"":309,""x"":842,""y"":444,""analysisTime"":52},{""startTime"":313,""x"":842,""y"":444,""analysisTime"":48},{""startTime"":317,""x"":842,""y"":444,""analysisTime"":44},{""startTime"":382,""x"":839,""y"":439,""analysisTime"":38},{""startTime"":387,""x"":816,""y"":396,""analysisTime"":53},{""startTime"":391,""x"":816,""y"":396,""analysisTime"":49},{""startTime"":444,""x"":816,""y"":396,""analysisTime"":53},{""startTime"":463,""x"":816,""y"":396,""analysisTime"":46},{""startTime"":467,""x"":816,""y"":396,""analysisTime"":42},{""startTime"":509,""x"":766,""y"":395,""analysisTime"":29},{""startTime"":538,""x"":726,""y"":387,""analysisTime"":46},{""startTime"":542,""x"":726,""y"":387,""analysisTime"":42},{""startTime"":564,""x"":710,""y"":384,""analysisTime"":36},{""startTime"":605,""x"":745,""y"":357,""analysisTime"":56},{""startTime"":609,""x"":745,""y"":357,""analysisTime"":52},{""startTime"":635,""x"":901,""y"":407,""analysisTime"":33},{""startTime"":673,""x"":814,""y"":434,""analysisTime"":59},{""startTime"":677,""x"":756,""y"":380,""analysisTime"":55},{""startTime"":680,""x"":756,""y"":380,""analysisTime"":52},{""startTime"":742,""x"":741,""y"":420,""analysisTime"":70},{""startTime"":746,""x"":741,""y"":420,""analysisTime"":66},{""startTime"":750,""x"":741,""y"":420,""analysisTime"":62},{""startTime"":823,""x"":741,""y"":420,""analysisTime"":55},{""startTime"":827,""x"":741,""y"":420,""analysisTime"":51},{""startTime"":830,""x"":741,""y"":420,""analysisTime"":48},{""startTime"":889,""x"":763,""y"":468,""analysisTime"":52},{""startTime"":893,""x"":763,""y"":468,""analysisTime"":48},{""startTime"":897,""x"":763,""y"":468,""analysisTime"":44},{""startTime"":952,""x"":725,""y"":444,""analysisTime"":52},{""startTime"":956,""x"":725,""y"":444,""analysisTime"":48},{""startTime"":960,""x"":725,""y"":444,""analysisTime"":44},{""startTime"":1015,""x"":664,""y"":433,""analysisTime"":52},{""startTime"":1019,""x"":664,""y"":433,""analysisTime"":48},{""startTime"":1023,""x"":664,""y"":433,""analysisTime"":44},{""startTime"":1079,""x"":638,""y"":441,""analysisTime"":52},{""startTime"":1083,""x"":638,""y"":441,""analysisTime"":48},{""startTime"":1087,""x"":638,""y"":441,""analysisTime"":44},{""startTime"":1143,""x"":639,""y"":449,""analysisTime"":60},{""startTime"":1147,""x"":639,""y"":449,""analysisTime"":56},{""startTime"":1151,""x"":639,""y"":449,""analysisTime"":52},{""startTime"":1219,""x"":727,""y"":395,""analysisTime"":71},{""startTime"":1223,""x"":704,""y"":384,""analysisTime"":67},{""startTime"":1227,""x"":704,""y"":384,""analysisTime"":63},{""startTime"":1301,""x"":755,""y"":403,""analysisTime"":53},{""startTime"":1305,""x"":755,""y"":403,""analysisTime"":49},{""startTime"":1308,""x"":755,""y"":403,""analysisTime"":46},{""startTime"":1364,""x"":772,""y"":413,""analysisTime"":53},{""startTime"":1369,""x"":772,""y"":413,""analysisTime"":48},{""startTime"":1373,""x"":772,""y"":413,""analysisTime"":44}]","1126.5","226.5","495","1095","true","false","","","","","","","",""
