"trial_type","trial_index","time_elapsed","internal_node_id","width","height","webaudio","browser","browser_version","mobile","os","fullscreen","vsync_rate","webcam","microphone","success","timeout","failed_images","failed_audio","failed_video","rt","stimulus","response","calibrationAccuracy","currGazeTime","singleCrossData","totalGazeTime","screenX","screenY","gazerDatasingleDotDuration","stimBot","stimTop","stimLeft","stimRight","webgazerError","stimLocation","trialLength","gazerDatadoubleImageGaze","stimLeftGaze","stimRightGaze","leftStimDims","rightStimDims","currGazeObject","gazerDatadoubleImageKey","stimulusOne","stimulusTwo","stimuliAreas","keyResp","gazerDatadoubleImageDuration","stimulusLeft","stimulusRight","LstimBot","LstimLeft","LstimRight","LstimTop","RstimBot","RstimLeft","RstimRight","RstimTop","gazerDatasingleImageKey","keyStimBot","keyStimTop","keyStimLeft","keyStimRight","upright","singleImageKeyWebgazerError","gazerDatasingleImageDuration","durationStimBot","durationStimTop","durationStimLeft","durationStimRight","singleImageDurationStimulus","singleImageDurationUpright","singleImageDurationWebgazerError"
"pavlovia","0","3607","0.0-0.0","","","","","","","","","","","","","","","","","","","","","","","","","","","","","","","","","","","","","","","","","","","","","","","","","","","","","","","","","","","","","","","","","","","","","",""
"browser-check","1","4608","0.0-1.0","1440","900","true","chrome","114.0.0","false","Mac OS","true","60.05","true","true","","","","","","","","","","","","","","","","","","","","","","","","","","","","","","","","","","","","","","","","","","","","","","","","","","","","","","","","","","",""
"preload","2","5470","0.0-2.0","","","","","","","","","","","","true","false","[]","[]","[]","","","","","","","","","","","","","","","","","","","","","","","","","","","","","","","","","","","","","","","","","","","","","","","","","","","","","",""
"html-keyboard-response","3","7392","0.0-3.0","","","","","","","","","","","","","","","","","1922","<p>Welcome to the Gazer demo experiment.</p>
    <p>The purpose of this demo is to provide working examples for all the available Gazer plugins for jsPsych.</p>
    <p>For documentation of this system, please visit <a href='https://amyvanwell.github.io/gazerCode/'>amyvanwell.github.io/gazerCode/</a>.</p> 
    <p>Press any key to proceed to the first part of the demonstration, the Gazer calibration.</p>"," ","","","","","","","","","","","","","","","","","","","","","","","","","","","","","","","","","","","","","","","","","","","","","","","","","","",""
"calibrate-quadrants-simple","4","30267","0.0-4.0","","","","","","","","","","","","","","","","","","","","78","","","","","","","","","","","","","","","","","","","","","","","","","","","","","","","","","","","","","","","","","","","","","","","","","",""
"html-keyboard-response","5","30771","0.0-5.0","","","","","","","","","","","","","","","","","503","<p>Thank you for calibrating, you will now proceed to the trials.</p><p> There are a total of 5 blocks of trials, each of a different type. <br>The first will be a block of 8 SINGLE-DOT-DURATION trials.</p><p>Your task is to fixate on the center cross, and then gaze at the red dot when it appears until the end of the trial.</p><p>In each trial, we will wait to present the red dot until we record your gaze has been on the center cross for 250ms consecutively.</p><p> Press [space] to continue to proceed to the first trial.</p>"," ","","","","","","","","","","","","","","","","","","","","","","","","","","","","","","","","","","","","","","","","","","","","","","","","","","",""
"Single-Cross-Gaze","6","34036","0.0-6.0-0.0","","","","","","","","","","","","","","","","","","","","","297","[{""startTime"":1689888232779,""x"":492,""y"":185,""analysisTime"":34},{""startTime"":1689888232824,""x"":474,""y"":230,""analysisTime"":40},{""startTime"":1689888232874,""x"":418,""y"":270,""analysisTime"":40},{""startTime"":1689888232925,""x"":591,""y"":255,""analysisTime"":32},{""startTime"":1689888232967,""x"":533,""y"":221,""analysisTime"":27},{""startTime"":1689888233007,""x"":504,""y"":126,""analysisTime"":39},{""startTime"":1689888233056,""x"":573,""y"":153,""analysisTime"":38},{""startTime"":1689888233105,""x"":770,""y"":215,""analysisTime"":41},{""startTime"":1689888233157,""x"":812,""y"":214,""analysisTime"":38},{""startTime"":1689888233205,""x"":739,""y"":192,""analysisTime"":40},{""startTime"":1689888233255,""x"":794,""y"":208,""analysisTime"":39},{""startTime"":1689888233304,""x"":617,""y"":183,""analysisTime"":39},{""startTime"":1689888233353,""x"":603,""y"":165,""analysisTime"":38},{""startTime"":1689888233401,""x"":724,""y"":231,""analysisTime"":39},{""startTime"":1689888233451,""x"":724,""y"":231,""analysisTime"":25},{""startTime"":1689888233491,""x"":750,""y"":213,""analysisTime"":39},{""startTime"":1689888233540,""x"":781,""y"":251,""analysisTime"":39},{""startTime"":1689888233590,""x"":710,""y"":249,""analysisTime"":38},{""startTime"":1689888233638,""x"":849,""y"":188,""analysisTime"":38},{""startTime"":1689888233688,""x"":718,""y"":187,""analysisTime"":37},{""startTime"":1689888233735,""x"":812,""y"":206,""analysisTime"":26},{""startTime"":1689888233774,""x"":677,""y"":267,""analysisTime"":40},{""startTime"":1689888233824,""x"":811,""y"":219,""analysisTime"":39},{""startTime"":1689888233873,""x"":677,""y"":249,""analysisTime"":38},{""startTime"":1689888233922,""x"":698,""y"":242,""analysisTime"":59},{""startTime"":1689888233992,""x"":779,""y"":280,""analysisTime"":37},{""startTime"":1689888234040,""x"":895,""y"":240,""analysisTime"":30},{""startTime"":1689888234080,""x"":868,""y"":258,""analysisTime"":26},{""startTime"":1689888234117,""x"":906,""y"":273,""analysisTime"":34},{""startTime"":1689888234161,""x"":833,""y"":268,""analysisTime"":39},{""startTime"":1689888234211,""x"":853,""y"":258,""analysisTime"":38},{""startTime"":1689888234260,""x"":746,""y"":279,""analysisTime"":38},{""startTime"":1689888234308,""x"":939,""y"":265,""analysisTime"":39},{""startTime"":1689888234357,""x"":813,""y"":245,""analysisTime"":37},{""startTime"":1689888234404,""x"":782,""y"":219,""analysisTime"":40},{""startTime"":1689888234455,""x"":799,""y"":235,""analysisTime"":37},{""startTime"":1689888234502,""x"":748,""y"":218,""analysisTime"":26},{""startTime"":1689888234541,""x"":861,""y"":228,""analysisTime"":38},{""startTime"":1689888234590,""x"":596,""y"":734,""analysisTime"":38},{""startTime"":1689888234638,""x"":543,""y"":902,""analysisTime"":39},{""startTime"":1689888234688,""x"":509,""y"":795,""analysisTime"":37},{""startTime"":1689888234735,""x"":786,""y"":557,""analysisTime"":39},{""startTime"":1689888234785,""x"":803,""y"":562,""analysisTime"":25},{""startTime"":1689888234825,""x"":768,""y"":414,""analysisTime"":40},{""startTime"":1689888234876,""x"":874,""y"":311,""analysisTime"":39},{""startTime"":1689888234926,""x"":923,""y"":293,""analysisTime"":37},{""startTime"":1689888234973,""x"":855,""y"":287,""analysisTime"":39},{""startTime"":1689888235023,""x"":883,""y"":330,""analysisTime"":37},{""startTime"":1689888235070,""x"":774,""y"":314,""analysisTime"":39},{""startTime"":1689888235119,""x"":802,""y"":313,""analysisTime"":38},{""startTime"":1689888235167,""x"":888,""y"":329,""analysisTime"":26},{""startTime"":1689888235208,""x"":800,""y"":294,""analysisTime"":40},{""startTime"":1689888235258,""x"":790,""y"":304,""analysisTime"":39},{""startTime"":1689888235307,""x"":804,""y"":308,""analysisTime"":39},{""startTime"":1689888235357,""x"":826,""y"":303,""analysisTime"":40},{""startTime"":1689888235408,""x"":814,""y"":300,""analysisTime"":31},{""startTime"":1689888235449,""x"":809,""y"":308,""analysisTime"":27},{""startTime"":1689888235490,""x"":890,""y"":305,""analysisTime"":39},{""startTime"":1689888235540,""x"":855,""y"":277,""analysisTime"":38},{""startTime"":1689888235588,""x"":898,""y"":270,""analysisTime"":38},{""startTime"":1689888235636,""x"":744,""y"":305,""analysisTime"":26},{""startTime"":1689888235673,""x"":765,""y"":292,""analysisTime"":22},{""startTime"":1689888235707,""x"":631,""y"":329,""analysisTime"":40},{""startTime"":1689888235758,""x"":703,""y"":322,""analysisTime"":31},{""startTime"":1689888235799,""x"":755,""y"":338,""analysisTime"":26},{""startTime"":1689888235836,""x"":842,""y"":343,""analysisTime"":22},{""startTime"":1689888235869,""x"":763,""y"":323,""analysisTime"":30},{""startTime"":1689888235909,""x"":741,""y"":330,""analysisTime"":38},{""startTime"":1689888235958,""x"":760,""y"":308,""analysisTime"":37},{""startTime"":1689888236005,""x"":741,""y"":326,""analysisTime"":39}]","3265","","","","","","","","","","","","","","","","","","","","","","","","","","","","","","","","","","","","","","","","","","","","","","",""
"Single-Dot-Duration","7","35575","0.0-6.0-1.0","","","","","","","","","","","","","","","","","","","","","","","","1440","900","[{""startTime"":1,""x"":741,""y"":326,""analysisTime"":25},{""startTime"":41,""x"":838,""y"":346,""analysisTime"":24},{""startTime"":76,""x"":805,""y"":346,""analysisTime"":22},{""startTime"":112,""x"":866,""y"":359,""analysisTime"":41},{""startTime"":163,""x"":714,""y"":370,""analysisTime"":40},{""startTime"":214,""x"":719,""y"":419,""analysisTime"":38},{""startTime"":262,""x"":664,""y"":395,""analysisTime"":40},{""startTime"":314,""x"":787,""y"":394,""analysisTime"":36},{""startTime"":361,""x"":683,""y"":420,""analysisTime"":38},{""startTime"":410,""x"":610,""y"":434,""analysisTime"":37},{""startTime"":457,""x"":691,""y"":423,""analysisTime"":27},{""startTime"":495,""x"":604,""y"":347,""analysisTime"":34},{""startTime"":540,""x"":604,""y"":347,""analysisTime"":25},{""startTime"":581,""x"":711,""y"":417,""analysisTime"":26},{""startTime"":619,""x"":652,""y"":435,""analysisTime"":34},{""startTime"":663,""x"":641,""y"":419,""analysisTime"":40},{""startTime"":713,""x"":723,""y"":384,""analysisTime"":39},{""startTime"":762,""x"":672,""y"":355,""analysisTime"":39},{""startTime"":812,""x"":833,""y"":271,""analysisTime"":37},{""startTime"":859,""x"":826,""y"":65,""analysisTime"":26},{""startTime"":897,""x"":648,""y"":144,""analysisTime"":39},{""startTime"":946,""x"":512,""y"":187,""analysisTime"":38},{""startTime"":994,""x"":817,""y"":199,""analysisTime"":39},{""startTime"":1044,""x"":1051,""y"":261,""analysisTime"":38},{""startTime"":1092,""x"":1073,""y"":254,""analysisTime"":39},{""startTime"":1142,""x"":1093,""y"":312,""analysisTime"":25},{""startTime"":1179,""x"":1222,""y"":276,""analysisTime"":39},{""startTime"":1229,""x"":1313,""y"":178,""analysisTime"":39},{""startTime"":1279,""x"":1154,""y"":152,""analysisTime"":38},{""startTime"":1327,""x"":1182,""y"":179,""analysisTime"":26},{""startTime"":1364,""x"":1337,""y"":294,""analysisTime"":21},{""startTime"":1396,""x"":1351,""y"":221,""analysisTime"":35},{""startTime"":1441,""x"":1350,""y"":261,""analysisTime"":25},{""startTime"":1481,""x"":1442,""y"":211,""analysisTime"":26},{""startTime"":1519,""x"":1432,""y"":197,""analysisTime"":20}]","211.5","161.5","191","241","false","1","","","","","","","","","","","","","","","","","","","","","","","","","","","","","","","","","","","","","",""
"Single-Cross-Gaze","8","37436","0.0-6.0-0.1","","","","","","","","","","","","","","","","","","","","","255","[{""startTime"":1689888237583,""x"":1491,""y"":208,""analysisTime"":31},{""startTime"":1689888237625,""x"":1319,""y"":198,""analysisTime"":40},{""startTime"":1689888237675,""x"":1494,""y"":249,""analysisTime"":38},{""startTime"":1689888237723,""x"":1390,""y"":279,""analysisTime"":40},{""startTime"":1689888237774,""x"":1487,""y"":234,""analysisTime"":40},{""startTime"":1689888237824,""x"":502,""y"":190,""analysisTime"":39},{""startTime"":1689888237874,""x"":857,""y"":136,""analysisTime"":38},{""startTime"":1689888237923,""x"":669,""y"":107,""analysisTime"":38},{""startTime"":1689888237972,""x"":597,""y"":151,""analysisTime"":38},{""startTime"":1689888238020,""x"":597,""y"":151,""analysisTime"":27},{""startTime"":1689888238058,""x"":780,""y"":203,""analysisTime"":34},{""startTime"":1689888238104,""x"":867,""y"":97,""analysisTime"":38},{""startTime"":1689888238153,""x"":867,""y"":97,""analysisTime"":26},{""startTime"":1689888238198,""x"":940,""y"":145,""analysisTime"":68},{""startTime"":1689888238276,""x"":853,""y"":141,""analysisTime"":37},{""startTime"":1689888238325,""x"":728,""y"":218,""analysisTime"":38},{""startTime"":1689888238375,""x"":788,""y"":262,""analysisTime"":38},{""startTime"":1689888238424,""x"":878,""y"":269,""analysisTime"":25},{""startTime"":1689888238459,""x"":849,""y"":234,""analysisTime"":35},{""startTime"":1689888238504,""x"":927,""y"":233,""analysisTime"":38},{""startTime"":1689888238553,""x"":859,""y"":217,""analysisTime"":25},{""startTime"":1689888238590,""x"":858,""y"":197,""analysisTime"":38},{""startTime"":1689888238638,""x"":915,""y"":226,""analysisTime"":40},{""startTime"":1689888238688,""x"":720,""y"":286,""analysisTime"":38},{""startTime"":1689888238737,""x"":681,""y"":284,""analysisTime"":24},{""startTime"":1689888238775,""x"":719,""y"":285,""analysisTime"":39},{""startTime"":1689888238824,""x"":487,""y"":584,""analysisTime"":39},{""startTime"":1689888238873,""x"":799,""y"":488,""analysisTime"":38},{""startTime"":1689888238922,""x"":769,""y"":420,""analysisTime"":38},{""startTime"":1689888238971,""x"":423,""y"":617,""analysisTime"":32},{""startTime"":1689888239014,""x"":430,""y"":869,""analysisTime"":26},{""startTime"":1689888239058,""x"":506,""y"":882,""analysisTime"":42},{""startTime"":1689888239111,""x"":498,""y"":633,""analysisTime"":41},{""startTime"":1689888239163,""x"":555,""y"":572,""analysisTime"":26},{""startTime"":1689888239200,""x"":566,""y"":543,""analysisTime"":30},{""startTime"":1689888239241,""x"":597,""y"":492,""analysisTime"":38},{""startTime"":1689888239290,""x"":587,""y"":442,""analysisTime"":37},{""startTime"":1689888239338,""x"":659,""y"":441,""analysisTime"":38},{""startTime"":1689888239386,""x"":659,""y"":441,""analysisTime"":26},{""startTime"":1689888239422,""x"":726,""y"":503,""analysisTime"":22}]","1861","","","","","","","","","","","","","","","","","","","","","","","","","","","","","","","","","","","","","","","","","","","","","","",""
"Single-Dot-Duration","9","38987","0.0-6.0-1.1","","","","","","","","","","","","","","","","","","","","","","","","1440","900","[{""startTime"":0,""x"":634,""y"":478,""analysisTime"":30},{""startTime"":40,""x"":693,""y"":447,""analysisTime"":39},{""startTime"":89,""x"":840,""y"":371,""analysisTime"":26},{""startTime"":131,""x"":888,""y"":345,""analysisTime"":40},{""startTime"":181,""x"":803,""y"":362,""analysisTime"":39},{""startTime"":231,""x"":772,""y"":351,""analysisTime"":38},{""startTime"":280,""x"":686,""y"":370,""analysisTime"":38},{""startTime"":328,""x"":635,""y"":366,""analysisTime"":39},{""startTime"":377,""x"":885,""y"":390,""analysisTime"":38},{""startTime"":426,""x"":825,""y"":380,""analysisTime"":25},{""startTime"":464,""x"":846,""y"":367,""analysisTime"":38},{""startTime"":513,""x"":853,""y"":295,""analysisTime"":38},{""startTime"":562,""x"":884,""y"":319,""analysisTime"":39},{""startTime"":611,""x"":976,""y"":370,""analysisTime"":39},{""startTime"":661,""x"":790,""y"":418,""analysisTime"":38},{""startTime"":710,""x"":754,""y"":436,""analysisTime"":38},{""startTime"":759,""x"":648,""y"":246,""analysisTime"":37},{""startTime"":807,""x"":481,""y"":137,""analysisTime"":37},{""startTime"":855,""x"":963,""y"":117,""analysisTime"":25},{""startTime"":891,""x"":929,""y"":250,""analysisTime"":22},{""startTime"":924,""x"":895,""y"":231,""analysisTime"":35},{""startTime"":979,""x"":895,""y"":231,""analysisTime"":50},{""startTime"":1040,""x"":1161,""y"":188,""analysisTime"":23},{""startTime"":1081,""x"":1357,""y"":184,""analysisTime"":42},{""startTime"":1134,""x"":1483,""y"":161,""analysisTime"":39},{""startTime"":1183,""x"":1497,""y"":150,""analysisTime"":39},{""startTime"":1233,""x"":1461,""y"":136,""analysisTime"":37},{""startTime"":1281,""x"":1643,""y"":146,""analysisTime"":38},{""startTime"":1329,""x"":1524,""y"":150,""analysisTime"":38},{""startTime"":1383,""x"":1699,""y"":82,""analysisTime"":26},{""startTime"":1421,""x"":1699,""y"":109,""analysisTime"":32},{""startTime"":1464,""x"":1440,""y"":289,""analysisTime"":38},{""startTime"":1513,""x"":1661,""y"":125,""analysisTime"":38}]","211.5","161.5","191","241","false","1","","","","","","","","","","","","","","","","","","","","","","","","","","","","","","","","","","","","","",""
"Single-Cross-Gaze","10","42407","0.0-6.0-0.2","","","","","","","","","","","","","","","","","","","","","269","[{""startTime"":1689888240995,""x"":1661,""y"":125,""analysisTime"":21},{""startTime"":1689888241027,""x"":1535,""y"":209,""analysisTime"":36},{""startTime"":1689888241073,""x"":1643,""y"":93,""analysisTime"":39},{""startTime"":1689888241123,""x"":1435,""y"":116,""analysisTime"":37},{""startTime"":1689888241170,""x"":1556,""y"":163,""analysisTime"":39},{""startTime"":1689888241220,""x"":1383,""y"":242,""analysisTime"":37},{""startTime"":1689888241267,""x"":475,""y"":135,""analysisTime"":39},{""startTime"":1689888241316,""x"":701,""y"":31,""analysisTime"":25},{""startTime"":1689888241356,""x"":780,""y"":75,""analysisTime"":39},{""startTime"":1689888241405,""x"":636,""y"":172,""analysisTime"":39},{""startTime"":1689888241455,""x"":546,""y"":169,""analysisTime"":37},{""startTime"":1689888241503,""x"":666,""y"":212,""analysisTime"":38},{""startTime"":1689888241552,""x"":666,""y"":212,""analysisTime"":24},{""startTime"":1689888241591,""x"":739,""y"":189,""analysisTime"":26},{""startTime"":1689888241628,""x"":892,""y"":45,""analysisTime"":34},{""startTime"":1689888241672,""x"":705,""y"":46,""analysisTime"":38},{""startTime"":1689888241721,""x"":651,""y"":105,""analysisTime"":38},{""startTime"":1689888241769,""x"":776,""y"":136,""analysisTime"":26},{""startTime"":1689888241806,""x"":714,""y"":199,""analysisTime"":35},{""startTime"":1689888241852,""x"":714,""y"":199,""analysisTime"":25},{""startTime"":1689888241892,""x"":840,""y"":191,""analysisTime"":39},{""startTime"":1689888241942,""x"":854,""y"":102,""analysisTime"":25},{""startTime"":1689888241979,""x"":787,""y"":123,""analysisTime"":34},{""startTime"":1689888242026,""x"":974,""y"":105,""analysisTime"":39},{""startTime"":1689888242075,""x"":660,""y"":134,""analysisTime"":39},{""startTime"":1689888242124,""x"":823,""y"":173,""analysisTime"":39},{""startTime"":1689888242173,""x"":674,""y"":126,""analysisTime"":39},{""startTime"":1689888242222,""x"":830,""y"":181,""analysisTime"":38},{""startTime"":1689888242271,""x"":784,""y"":204,""analysisTime"":38},{""startTime"":1689888242319,""x"":784,""y"":204,""analysisTime"":26},{""startTime"":1689888242358,""x"":815,""y"":186,""analysisTime"":39},{""startTime"":1689888242409,""x"":806,""y"":177,""analysisTime"":30},{""startTime"":1689888242449,""x"":901,""y"":101,""analysisTime"":27},{""startTime"":1689888242493,""x"":883,""y"":271,""analysisTime"":38},{""startTime"":1689888242542,""x"":829,""y"":247,""analysisTime"":38},{""startTime"":1689888242590,""x"":842,""y"":258,""analysisTime"":38},{""startTime"":1689888242648,""x"":817,""y"":269,""analysisTime"":50},{""startTime"":1689888242709,""x"":832,""y"":264,""analysisTime"":35},{""startTime"":1689888242755,""x"":759,""y"":249,""analysisTime"":37},{""startTime"":1689888242803,""x"":822,""y"":263,""analysisTime"":37},{""startTime"":1689888242855,""x"":841,""y"":241,""analysisTime"":39},{""startTime"":1689888242905,""x"":845,""y"":166,""analysisTime"":39},{""startTime"":1689888242955,""x"":929,""y"":204,""analysisTime"":37},{""startTime"":1689888243002,""x"":827,""y"":221,""analysisTime"":40},{""startTime"":1689888243052,""x"":776,""y"":240,""analysisTime"":38},{""startTime"":1689888243105,""x"":714,""y"":311,""analysisTime"":39},{""startTime"":1689888243154,""x"":762,""y"":262,""analysisTime"":38},{""startTime"":1689888243203,""x"":695,""y"":241,""analysisTime"":38},{""startTime"":1689888243252,""x"":695,""y"":241,""analysisTime"":26},{""startTime"":1689888243291,""x"":717,""y"":247,""analysisTime"":40},{""startTime"":1689888243341,""x"":733,""y"":368,""analysisTime"":39},{""startTime"":1689888243391,""x"":693,""y"":350,""analysisTime"":38},{""startTime"":1689888243439,""x"":789,""y"":322,""analysisTime"":39},{""startTime"":1689888243488,""x"":717,""y"":351,""analysisTime"":38},{""startTime"":1689888243537,""x"":788,""y"":263,""analysisTime"":38},{""startTime"":1689888243585,""x"":719,""y"":356,""analysisTime"":25},{""startTime"":1689888243624,""x"":691,""y"":327,""analysisTime"":40},{""startTime"":1689888243674,""x"":798,""y"":351,""analysisTime"":39},{""startTime"":1689888243724,""x"":684,""y"":294,""analysisTime"":39},{""startTime"":1689888243773,""x"":639,""y"":311,""analysisTime"":39},{""startTime"":1689888243822,""x"":766,""y"":296,""analysisTime"":38},{""startTime"":1689888243871,""x"":649,""y"":330,""analysisTime"":38},{""startTime"":1689888243919,""x"":612,""y"":347,""analysisTime"":39},{""startTime"":1689888243968,""x"":577,""y"":334,""analysisTime"":39},{""startTime"":1689888244017,""x"":577,""y"":334,""analysisTime"":26},{""startTime"":1689888244058,""x"":668,""y"":283,""analysisTime"":39},{""startTime"":1689888244107,""x"":717,""y"":397,""analysisTime"":39},{""startTime"":1689888244156,""x"":801,""y"":318,""analysisTime"":38},{""startTime"":1689888244204,""x"":815,""y"":307,""analysisTime"":33},{""startTime"":1689888244248,""x"":773,""y"":308,""analysisTime"":37},{""startTime"":1689888244296,""x"":671,""y"":358,""analysisTime"":26},{""startTime"":1689888244335,""x"":729,""y"":378,""analysisTime"":30},{""startTime"":1689888244375,""x"":636,""y"":355,""analysisTime"":40}]","3420","","","","","","","","","","","","","","","","","","","","","","","","","","","","","","","","","","","","","","","","","","","","","","",""
"Single-Dot-Duration","11","43985","0.0-6.0-1.2","","","","","","","","","","","","","","","","","","","","","","","","1440","900","[{""startTime"":0,""x"":636,""y"":355,""analysisTime"":19},{""startTime"":31,""x"":736,""y"":360,""analysisTime"":34},{""startTime"":75,""x"":664,""y"":355,""analysisTime"":38},{""startTime"":123,""x"":703,""y"":298,""analysisTime"":40},{""startTime"":174,""x"":855,""y"":227,""analysisTime"":37},{""startTime"":221,""x"":659,""y"":340,""analysisTime"":38},{""startTime"":275,""x"":663,""y"":336,""analysisTime"":38},{""startTime"":324,""x"":517,""y"":315,""analysisTime"":38},{""startTime"":373,""x"":824,""y"":376,""analysisTime"":37},{""startTime"":421,""x"":575,""y"":390,""analysisTime"":39},{""startTime"":498,""x"":635,""y"":367,""analysisTime"":31},{""startTime"":539,""x"":687,""y"":400,""analysisTime"":39},{""startTime"":592,""x"":800,""y"":315,""analysisTime"":26},{""startTime"":629,""x"":698,""y"":418,""analysisTime"":36},{""startTime"":675,""x"":877,""y"":290,""analysisTime"":38},{""startTime"":723,""x"":797,""y"":343,""analysisTime"":39},{""startTime"":772,""x"":832,""y"":328,""analysisTime"":25},{""startTime"":808,""x"":896,""y"":332,""analysisTime"":34},{""startTime"":853,""x"":451,""y"":206,""analysisTime"":26},{""startTime"":893,""x"":868,""y"":190,""analysisTime"":39},{""startTime"":943,""x"":1385,""y"":225,""analysisTime"":37},{""startTime"":991,""x"":800,""y"":304,""analysisTime"":38},{""startTime"":1039,""x"":1010,""y"":329,""analysisTime"":40},{""startTime"":1089,""x"":1259,""y"":306,""analysisTime"":39},{""startTime"":1139,""x"":1259,""y"":306,""analysisTime"":24},{""startTime"":1176,""x"":1350,""y"":248,""analysisTime"":38},{""startTime"":1224,""x"":1604,""y"":333,""analysisTime"":26},{""startTime"":1261,""x"":1432,""y"":325,""analysisTime"":35},{""startTime"":1306,""x"":1300,""y"":162,""analysisTime"":38},{""startTime"":1355,""x"":1216,""y"":285,""analysisTime"":26},{""startTime"":1393,""x"":1395,""y"":309,""analysisTime"":39},{""startTime"":1442,""x"":1425,""y"":228,""analysisTime"":38},{""startTime"":1491,""x"":1590,""y"":209,""analysisTime"":38},{""startTime"":1540,""x"":1463,""y"":205,""analysisTime"":38}]","211.5","161.5","191","241","false","1","","","","","","","","","","","","","","","","","","","","","","","","","","","","","","","","","","","","","",""
"Single-Cross-Gaze","12","45157","0.0-6.0-0.3","","","","","","","","","","","","","","","","","","","","","253","[{""startTime"":1689888245994,""x"":1463,""y"":205,""analysisTime"":20},{""startTime"":1689888246025,""x"":1506,""y"":229,""analysisTime"":37},{""startTime"":1689888246073,""x"":1384,""y"":249,""analysisTime"":38},{""startTime"":1689888246123,""x"":1444,""y"":251,""analysisTime"":37},{""startTime"":1689888246170,""x"":1518,""y"":259,""analysisTime"":39},{""startTime"":1689888246221,""x"":1518,""y"":259,""analysisTime"":24},{""startTime"":1689888246257,""x"":900,""y"":145,""analysisTime"":39},{""startTime"":1689888246306,""x"":514,""y"":627,""analysisTime"":39},{""startTime"":1689888246356,""x"":690,""y"":436,""analysisTime"":37},{""startTime"":1689888246403,""x"":772,""y"":341,""analysisTime"":39},{""startTime"":1689888246452,""x"":732,""y"":326,""analysisTime"":26},{""startTime"":1689888246492,""x"":770,""y"":350,""analysisTime"":38},{""startTime"":1689888246540,""x"":737,""y"":366,""analysisTime"":39},{""startTime"":1689888246589,""x"":857,""y"":278,""analysisTime"":38},{""startTime"":1689888246637,""x"":909,""y"":282,""analysisTime"":39},{""startTime"":1689888246686,""x"":714,""y"":243,""analysisTime"":38},{""startTime"":1689888246735,""x"":656,""y"":300,""analysisTime"":38},{""startTime"":1689888246783,""x"":656,""y"":300,""analysisTime"":26},{""startTime"":1689888246823,""x"":679,""y"":298,""analysisTime"":39},{""startTime"":1689888246873,""x"":770,""y"":338,""analysisTime"":39},{""startTime"":1689888246923,""x"":741,""y"":312,""analysisTime"":38},{""startTime"":1689888246971,""x"":642,""y"":335,""analysisTime"":38},{""startTime"":1689888247020,""x"":642,""y"":335,""analysisTime"":25},{""startTime"":1689888247058,""x"":751,""y"":353,""analysisTime"":40},{""startTime"":1689888247136,""x"":740,""y"":380,""analysisTime"":29}]","1171","","","","","","","","","","","","","","","","","","","","","","","","","","","","","","","","","","","","","","","","","","","","","","",""
"Single-Dot-Duration","13","46738","0.0-6.0-1.3","","","","","","","","","","","","","","","","","","","","","","","","1440","900","[{""startTime"":0,""x"":740,""y"":380,""analysisTime"":21},{""startTime"":32,""x"":876,""y"":337,""analysisTime"":33},{""startTime"":76,""x"":687,""y"":288,""analysisTime"":38},{""startTime"":126,""x"":891,""y"":311,""analysisTime"":37},{""startTime"":173,""x"":794,""y"":297,""analysisTime"":39},{""startTime"":223,""x"":697,""y"":278,""analysisTime"":38},{""startTime"":271,""x"":774,""y"":275,""analysisTime"":26},{""startTime"":308,""x"":782,""y"":279,""analysisTime"":39},{""startTime"":357,""x"":777,""y"":332,""analysisTime"":39},{""startTime"":406,""x"":773,""y"":291,""analysisTime"":38},{""startTime"":456,""x"":790,""y"":246,""analysisTime"":23},{""startTime"":493,""x"":869,""y"":237,""analysisTime"":37},{""startTime"":540,""x"":811,""y"":240,""analysisTime"":25},{""startTime"":576,""x"":922,""y"":289,""analysisTime"":34},{""startTime"":620,""x"":858,""y"":294,""analysisTime"":27},{""startTime"":660,""x"":821,""y"":281,""analysisTime"":38},{""startTime"":708,""x"":833,""y"":301,""analysisTime"":26},{""startTime"":745,""x"":839,""y"":289,""analysisTime"":35},{""startTime"":790,""x"":817,""y"":319,""analysisTime"":39},{""startTime"":839,""x"":646,""y"":589,""analysisTime"":39},{""startTime"":888,""x"":816,""y"":646,""analysisTime"":38},{""startTime"":936,""x"":780,""y"":618,""analysisTime"":26},{""startTime"":976,""x"":693,""y"":641,""analysisTime"":39},{""startTime"":1025,""x"":686,""y"":622,""analysisTime"":37},{""startTime"":1072,""x"":739,""y"":573,""analysisTime"":39},{""startTime"":1122,""x"":648,""y"":600,""analysisTime"":37},{""startTime"":1170,""x"":732,""y"":618,""analysisTime"":25},{""startTime"":1209,""x"":754,""y"":608,""analysisTime"":39},{""startTime"":1258,""x"":779,""y"":607,""analysisTime"":39},{""startTime"":1307,""x"":695,""y"":626,""analysisTime"":39},{""startTime"":1356,""x"":774,""y"":593,""analysisTime"":39},{""startTime"":1405,""x"":806,""y"":597,""analysisTime"":30},{""startTime"":1446,""x"":754,""y"":602,""analysisTime"":38},{""startTime"":1495,""x"":775,""y"":590,""analysisTime"":38},{""startTime"":1543,""x"":790,""y"":613,""analysisTime"":38}]","841.5","791.5","695","745","false","6","","","","","","","","","","","","","","","","","","","","","","","","","","","","","","","","","","","","","",""
"Single-Cross-Gaze","14","47000","0.0-6.0-0.4","","","","","","","","","","","","","","","","","","","","","261","[{""startTime"":1689888248747,""x"":839,""y"":628,""analysisTime"":19},{""startTime"":1689888248778,""x"":747,""y"":610,""analysisTime"":34},{""startTime"":1689888248823,""x"":698,""y"":585,""analysisTime"":39},{""startTime"":1689888248872,""x"":730,""y"":611,""analysisTime"":39},{""startTime"":1689888248921,""x"":713,""y"":573,""analysisTime"":38},{""startTime"":1689888248970,""x"":706,""y"":604,""analysisTime"":38}]","261","","","","","","","","","","","","","","","","","","","","","","","","","","","","","","","","","","","","","","","","","","","","","","",""
"Single-Dot-Duration","15","48552","0.0-6.0-1.4","","","","","","","","","","","","","","","","","","","","","","","","1440","900","[{""startTime"":0,""x"":716,""y"":463,""analysisTime"":32},{""startTime"":43,""x"":769,""y"":477,""analysisTime"":25},{""startTime"":84,""x"":749,""y"":420,""analysisTime"":40},{""startTime"":134,""x"":718,""y"":400,""analysisTime"":38},{""startTime"":183,""x"":905,""y"":441,""analysisTime"":38},{""startTime"":231,""x"":776,""y"":430,""analysisTime"":40},{""startTime"":282,""x"":744,""y"":459,""analysisTime"":38},{""startTime"":358,""x"":636,""y"":496,""analysisTime"":31},{""startTime"":399,""x"":725,""y"":561,""analysisTime"":39},{""startTime"":448,""x"":429,""y"":665,""analysisTime"":39},{""startTime"":497,""x"":601,""y"":480,""analysisTime"":39},{""startTime"":546,""x"":635,""y"":467,""analysisTime"":38},{""startTime"":598,""x"":462,""y"":434,""analysisTime"":39},{""startTime"":647,""x"":645,""y"":363,""analysisTime"":38},{""startTime"":695,""x"":658,""y"":427,""analysisTime"":39},{""startTime"":745,""x"":616,""y"":392,""analysisTime"":38},{""startTime"":793,""x"":571,""y"":371,""analysisTime"":26},{""startTime"":830,""x"":703,""y"":391,""analysisTime"":21},{""startTime"":866,""x"":756,""y"":661,""analysisTime"":39},{""startTime"":917,""x"":764,""y"":660,""analysisTime"":39},{""startTime"":966,""x"":758,""y"":624,""analysisTime"":39},{""startTime"":1015,""x"":717,""y"":608,""analysisTime"":39},{""startTime"":1064,""x"":733,""y"":606,""analysisTime"":26},{""startTime"":1101,""x"":747,""y"":574,""analysisTime"":34},{""startTime"":1145,""x"":930,""y"":613,""analysisTime"":38},{""startTime"":1193,""x"":803,""y"":562,""analysisTime"":26},{""startTime"":1232,""x"":870,""y"":602,""analysisTime"":38},{""startTime"":1282,""x"":958,""y"":616,""analysisTime"":38},{""startTime"":1330,""x"":831,""y"":608,""analysisTime"":38},{""startTime"":1379,""x"":831,""y"":608,""analysisTime"":25},{""startTime"":1416,""x"":800,""y"":677,""analysisTime"":39},{""startTime"":1466,""x"":788,""y"":621,""analysisTime"":37},{""startTime"":1513,""x"":844,""y"":626,""analysisTime"":38}]","841.5","791.5","695","745","false","6","","","","","","","","","","","","","","","","","","","","","","","","","","","","","","","","","","","","","",""
"Single-Cross-Gaze","16","48850","0.0-6.0-0.5","","","","","","","","","","","","","","","","","","","","","297","[{""startTime"":1689888250561,""x"":754,""y"":603,""analysisTime"":32},{""startTime"":1689888250603,""x"":854,""y"":608,""analysisTime"":26},{""startTime"":1689888250642,""x"":831,""y"":582,""analysisTime"":25},{""startTime"":1689888250678,""x"":871,""y"":598,""analysisTime"":34},{""startTime"":1689888250722,""x"":818,""y"":586,""analysisTime"":38},{""startTime"":1689888250770,""x"":793,""y"":547,""analysisTime"":39},{""startTime"":1689888250820,""x"":669,""y"":586,""analysisTime"":38}]","297","","","","","","","","","","","","","","","","","","","","","","","","","","","","","","","","","","","","","","","","","","","","","","",""
"Single-Dot-Duration","17","50408","0.0-6.0-1.5","","","","","","","","","","","","","","","","","","","","","","","","1440","900","[{""startTime"":0,""x"":493,""y"":475,""analysisTime"":32},{""startTime"":42,""x"":609,""y"":451,""analysisTime"":27},{""startTime"":84,""x"":725,""y"":482,""analysisTime"":41},{""startTime"":135,""x"":936,""y"":393,""analysisTime"":39},{""startTime"":185,""x"":843,""y"":390,""analysisTime"":37},{""startTime"":232,""x"":712,""y"":441,""analysisTime"":39},{""startTime"":281,""x"":891,""y"":424,""analysisTime"":40},{""startTime"":331,""x"":758,""y"":395,""analysisTime"":39},{""startTime"":381,""x"":834,""y"":341,""analysisTime"":39},{""startTime"":431,""x"":931,""y"":330,""analysisTime"":37},{""startTime"":479,""x"":690,""y"":373,""analysisTime"":30},{""startTime"":520,""x"":917,""y"":334,""analysisTime"":34},{""startTime"":564,""x"":875,""y"":356,""analysisTime"":39},{""startTime"":613,""x"":854,""y"":356,""analysisTime"":39},{""startTime"":668,""x"":805,""y"":364,""analysisTime"":24},{""startTime"":708,""x"":849,""y"":382,""analysisTime"":48},{""startTime"":766,""x"":787,""y"":395,""analysisTime"":34},{""startTime"":810,""x"":853,""y"":387,""analysisTime"":26},{""startTime"":850,""x"":640,""y"":147,""analysisTime"":39},{""startTime"":899,""x"":706,""y"":154,""analysisTime"":38},{""startTime"":948,""x"":788,""y"":124,""analysisTime"":39},{""startTime"":998,""x"":635,""y"":76,""analysisTime"":37},{""startTime"":1046,""x"":724,""y"":111,""analysisTime"":39},{""startTime"":1095,""x"":744,""y"":113,""analysisTime"":38},{""startTime"":1144,""x"":667,""y"":122,""analysisTime"":26},{""startTime"":1184,""x"":772,""y"":117,""analysisTime"":39},{""startTime"":1234,""x"":704,""y"":134,""analysisTime"":38},{""startTime"":1282,""x"":806,""y"":137,""analysisTime"":39},{""startTime"":1331,""x"":619,""y"":130,""analysisTime"":39},{""startTime"":1380,""x"":786,""y"":104,""analysisTime"":39},{""startTime"":1429,""x"":676,""y"":123,""analysisTime"":26},{""startTime"":1466,""x"":708,""y"":107,""analysisTime"":39},{""startTime"":1518,""x"":687,""y"":124,""analysisTime"":40}]","526.5","476.5","191","241","false","8","","","","","","","","","","","","","","","","","","","","","","","","","","","","","","","","","","","","","",""
"Single-Cross-Gaze","18","53173","0.0-6.0-0.6","","","","","","","","","","","","","","","","","","","","","253","[{""startTime"":1689888252416,""x"":687,""y"":124,""analysisTime"":20},{""startTime"":1689888252446,""x"":872,""y"":124,""analysisTime"":35},{""startTime"":1689888252491,""x"":882,""y"":74,""analysisTime"":39},{""startTime"":1689888252540,""x"":955,""y"":110,""analysisTime"":38},{""startTime"":1689888252588,""x"":839,""y"":140,""analysisTime"":38},{""startTime"":1689888252636,""x"":822,""y"":160,""analysisTime"":26},{""startTime"":1689888252673,""x"":972,""y"":275,""analysisTime"":40},{""startTime"":1689888252723,""x"":853,""y"":191,""analysisTime"":38},{""startTime"":1689888252771,""x"":890,""y"":204,""analysisTime"":39},{""startTime"":1689888252820,""x"":866,""y"":199,""analysisTime"":25},{""startTime"":1689888252857,""x"":811,""y"":167,""analysisTime"":39},{""startTime"":1689888252907,""x"":791,""y"":168,""analysisTime"":37},{""startTime"":1689888252955,""x"":761,""y"":154,""analysisTime"":38},{""startTime"":1689888253003,""x"":828,""y"":177,""analysisTime"":27},{""startTime"":1689888253041,""x"":914,""y"":169,""analysisTime"":39},{""startTime"":1689888253090,""x"":910,""y"":202,""analysisTime"":38},{""startTime"":1689888253139,""x"":804,""y"":234,""analysisTime"":39},{""startTime"":1689888253188,""x"":813,""y"":256,""analysisTime"":39},{""startTime"":1689888253237,""x"":782,""y"":225,""analysisTime"":38},{""startTime"":1689888253285,""x"":765,""y"":219,""analysisTime"":39},{""startTime"":1689888253334,""x"":780,""y"":219,""analysisTime"":39},{""startTime"":1689888253384,""x"":793,""y"":224,""analysisTime"":24},{""startTime"":1689888253425,""x"":969,""y"":226,""analysisTime"":39},{""startTime"":1689888253474,""x"":861,""y"":244,""analysisTime"":41},{""startTime"":1689888253525,""x"":862,""y"":258,""analysisTime"":39},{""startTime"":1689888253575,""x"":878,""y"":249,""analysisTime"":38},{""startTime"":1689888253626,""x"":879,""y"":291,""analysisTime"":38},{""startTime"":1689888253674,""x"":912,""y"":242,""analysisTime"":38},{""startTime"":1689888253724,""x"":885,""y"":254,""analysisTime"":45},{""startTime"":1689888253791,""x"":885,""y"":254,""analysisTime"":46},{""startTime"":1689888253848,""x"":736,""y"":253,""analysisTime"":34},{""startTime"":1689888253892,""x"":646,""y"":229,""analysisTime"":43},{""startTime"":1689888253945,""x"":668,""y"":249,""analysisTime"":40},{""startTime"":1689888253996,""x"":730,""y"":263,""analysisTime"":39},{""startTime"":1689888254045,""x"":784,""y"":285,""analysisTime"":37},{""startTime"":1689888254092,""x"":699,""y"":230,""analysisTime"":39},{""startTime"":1689888254141,""x"":679,""y"":251,""analysisTime"":39},{""startTime"":1689888254191,""x"":787,""y"":273,""analysisTime"":38},{""startTime"":1689888254239,""x"":762,""y"":298,""analysisTime"":38},{""startTime"":1689888254293,""x"":754,""y"":335,""analysisTime"":38},{""startTime"":1689888254342,""x"":690,""y"":241,""analysisTime"":38},{""startTime"":1689888254390,""x"":812,""y"":285,""analysisTime"":38},{""startTime"":1689888254439,""x"":629,""y"":284,""analysisTime"":38},{""startTime"":1689888254488,""x"":705,""y"":266,""analysisTime"":38},{""startTime"":1689888254536,""x"":688,""y"":277,""analysisTime"":39},{""startTime"":1689888254585,""x"":723,""y"":272,""analysisTime"":26},{""startTime"":1689888254623,""x"":629,""y"":315,""analysisTime"":39},{""startTime"":1689888254673,""x"":671,""y"":524,""analysisTime"":38},{""startTime"":1689888254721,""x"":644,""y"":931,""analysisTime"":39},{""startTime"":1689888254770,""x"":253,""y"":817,""analysisTime"":25},{""startTime"":1689888254807,""x"":534,""y"":816,""analysisTime"":33},{""startTime"":1689888254851,""x"":529,""y"":802,""analysisTime"":38},{""startTime"":1689888254900,""x"":676,""y"":554,""analysisTime"":28},{""startTime"":1689888254943,""x"":795,""y"":378,""analysisTime"":41},{""startTime"":1689888254995,""x"":897,""y"":389,""analysisTime"":40},{""startTime"":1689888255045,""x"":680,""y"":356,""analysisTime"":39},{""startTime"":1689888255094,""x"":807,""y"":319,""analysisTime"":38},{""startTime"":1689888255143,""x"":813,""y"":338,""analysisTime"":38}]","2765","","","","","","","","","","","","","","","","","","","","","","","","","","","","","","","","","","","","","","","","","","","","","","",""
"Single-Dot-Duration","19","54738","0.0-6.0-1.6","","","","","","","","","","","","","","","","","","","","","","","","1440","900","[{""startTime"":0,""x"":813,""y"":338,""analysisTime"":20},{""startTime"":31,""x"":707,""y"":329,""analysisTime"":35},{""startTime"":76,""x"":673,""y"":291,""analysisTime"":37},{""startTime"":124,""x"":739,""y"":253,""analysisTime"":38},{""startTime"":172,""x"":744,""y"":230,""analysisTime"":40},{""startTime"":222,""x"":807,""y"":244,""analysisTime"":41},{""startTime"":274,""x"":856,""y"":266,""analysisTime"":39},{""startTime"":323,""x"":750,""y"":266,""analysisTime"":39},{""startTime"":372,""x"":759,""y"":240,""analysisTime"":38},{""startTime"":422,""x"":801,""y"":254,""analysisTime"":38},{""startTime"":470,""x"":672,""y"":277,""analysisTime"":38},{""startTime"":518,""x"":747,""y"":215,""analysisTime"":26},{""startTime"":561,""x"":711,""y"":199,""analysisTime"":40},{""startTime"":612,""x"":749,""y"":293,""analysisTime"":38},{""startTime"":661,""x"":773,""y"":298,""analysisTime"":40},{""startTime"":720,""x"":799,""y"":262,""analysisTime"":28},{""startTime"":760,""x"":762,""y"":243,""analysisTime"":42},{""startTime"":813,""x"":1150,""y"":193,""analysisTime"":38},{""startTime"":862,""x"":1502,""y"":211,""analysisTime"":38},{""startTime"":910,""x"":1636,""y"":157,""analysisTime"":38},{""startTime"":959,""x"":1574,""y"":217,""analysisTime"":39},{""startTime"":1008,""x"":1515,""y"":218,""analysisTime"":38},{""startTime"":1058,""x"":1347,""y"":279,""analysisTime"":40},{""startTime"":1108,""x"":1466,""y"":250,""analysisTime"":39},{""startTime"":1158,""x"":1493,""y"":228,""analysisTime"":37},{""startTime"":1205,""x"":1480,""y"":232,""analysisTime"":38},{""startTime"":1253,""x"":1501,""y"":238,""analysisTime"":26},{""startTime"":1293,""x"":1431,""y"":223,""analysisTime"":39},{""startTime"":1342,""x"":1451,""y"":220,""analysisTime"":39},{""startTime"":1391,""x"":1324,""y"":269,""analysisTime"":38},{""startTime"":1440,""x"":1408,""y"":229,""analysisTime"":38},{""startTime"":1488,""x"":1585,""y"":175,""analysisTime"":26},{""startTime"":1527,""x"":1228,""y"":298,""analysisTime"":38}]","211.5","161.5","191","241","false","1","","","","","","","","","","","","","","","","","","","","","","","","","","","","","","","","","","","","","",""
"Single-Cross-Gaze","20","61187","0.0-6.0-0.7","","","","","","","","","","","","","","","","","","","","","286","[{""startTime"":1689888256747,""x"":1228,""y"":298,""analysisTime"":21},{""startTime"":1689888256779,""x"":1072,""y"":310,""analysisTime"":34},{""startTime"":1689888256823,""x"":1463,""y"":166,""analysisTime"":39},{""startTime"":1689888256873,""x"":1372,""y"":160,""analysisTime"":37},{""startTime"":1689888256920,""x"":1517,""y"":160,""analysisTime"":26},{""startTime"":1689888256958,""x"":1514,""y"":194,""analysisTime"":33},{""startTime"":1689888257001,""x"":1387,""y"":193,""analysisTime"":27},{""startTime"":1689888257038,""x"":719,""y"":194,""analysisTime"":23},{""startTime"":1689888257074,""x"":423,""y"":214,""analysisTime"":38},{""startTime"":1689888257123,""x"":511,""y"":139,""analysisTime"":38},{""startTime"":1689888257171,""x"":624,""y"":206,""analysisTime"":39},{""startTime"":1689888257220,""x"":525,""y"":228,""analysisTime"":39},{""startTime"":1689888257269,""x"":699,""y"":206,""analysisTime"":39},{""startTime"":1689888257319,""x"":628,""y"":202,""analysisTime"":24},{""startTime"":1689888257358,""x"":820,""y"":188,""analysisTime"":39},{""startTime"":1689888257407,""x"":755,""y"":159,""analysisTime"":38},{""startTime"":1689888257456,""x"":637,""y"":111,""analysisTime"":39},{""startTime"":1689888257505,""x"":526,""y"":223,""analysisTime"":39},{""startTime"":1689888257554,""x"":627,""y"":97,""analysisTime"":38},{""startTime"":1689888257603,""x"":763,""y"":112,""analysisTime"":25},{""startTime"":1689888257640,""x"":793,""y"":161,""analysisTime"":21},{""startTime"":1689888257675,""x"":644,""y"":118,""analysisTime"":39},{""startTime"":1689888257724,""x"":732,""y"":196,""analysisTime"":38},{""startTime"":1689888257773,""x"":790,""y"":166,""analysisTime"":38},{""startTime"":1689888257822,""x"":735,""y"":105,""analysisTime"":36},{""startTime"":1689888257870,""x"":848,""y"":159,""analysisTime"":24},{""startTime"":1689888257906,""x"":757,""y"":136,""analysisTime"":22},{""startTime"":1689888257942,""x"":770,""y"":124,""analysisTime"":24},{""startTime"":1689888257977,""x"":808,""y"":133,""analysisTime"":33},{""startTime"":1689888258021,""x"":639,""y"":151,""analysisTime"":39},{""startTime"":1689888258076,""x"":583,""y"":193,""analysisTime"":25},{""startTime"":1689888258119,""x"":566,""y"":183,""analysisTime"":70},{""startTime"":1689888258200,""x"":761,""y"":176,""analysisTime"":23},{""startTime"":1689888258235,""x"":705,""y"":212,""analysisTime"":32},{""startTime"":1689888258277,""x"":799,""y"":190,""analysisTime"":40},{""startTime"":1689888258327,""x"":790,""y"":187,""analysisTime"":26},{""startTime"":1689888258364,""x"":781,""y"":183,""analysisTime"":34},{""startTime"":1689888258408,""x"":756,""y"":205,""analysisTime"":39},{""startTime"":1689888258458,""x"":818,""y"":111,""analysisTime"":38},{""startTime"":1689888258506,""x"":804,""y"":164,""analysisTime"":39},{""startTime"":1689888258555,""x"":545,""y"":231,""analysisTime"":39},{""startTime"":1689888258604,""x"":625,""y"":214,""analysisTime"":38},{""startTime"":1689888258653,""x"":534,""y"":220,""analysisTime"":36},{""startTime"":1689888258700,""x"":707,""y"":219,""analysisTime"":25},{""startTime"":1689888258741,""x"":676,""y"":277,""analysisTime"":39},{""startTime"":1689888258791,""x"":731,""y"":226,""analysisTime"":39},{""startTime"":1689888258840,""x"":721,""y"":155,""analysisTime"":39},{""startTime"":1689888258889,""x"":711,""y"":152,""analysisTime"":40},{""startTime"":1689888258939,""x"":772,""y"":156,""analysisTime"":38},{""startTime"":1689888258988,""x"":676,""y"":236,""analysisTime"":37},{""startTime"":1689888259035,""x"":910,""y"":188,""analysisTime"":38},{""startTime"":1689888259084,""x"":811,""y"":182,""analysisTime"":25},{""startTime"":1689888259125,""x"":861,""y"":239,""analysisTime"":39},{""startTime"":1689888259175,""x"":857,""y"":243,""analysisTime"":37},{""startTime"":1689888259224,""x"":845,""y"":239,""analysisTime"":36},{""startTime"":1689888259270,""x"":829,""y"":202,""analysisTime"":25},{""startTime"":1689888259308,""x"":840,""y"":202,""analysisTime"":39},{""startTime"":1689888259358,""x"":670,""y"":231,""analysisTime"":38},{""startTime"":1689888259408,""x"":777,""y"":227,""analysisTime"":31},{""startTime"":1689888259449,""x"":777,""y"":227,""analysisTime"":27},{""startTime"":1689888259490,""x"":843,""y"":218,""analysisTime"":42},{""startTime"":1689888259543,""x"":785,""y"":134,""analysisTime"":37},{""startTime"":1689888259590,""x"":762,""y"":215,""analysisTime"":39},{""startTime"":1689888259639,""x"":842,""y"":267,""analysisTime"":38},{""startTime"":1689888259688,""x"":884,""y"":262,""analysisTime"":38},{""startTime"":1689888259736,""x"":884,""y"":262,""analysisTime"":26},{""startTime"":1689888259774,""x"":783,""y"":217,""analysisTime"":40},{""startTime"":1689888259824,""x"":739,""y"":259,""analysisTime"":38},{""startTime"":1689888259873,""x"":890,""y"":217,""analysisTime"":38},{""startTime"":1689888259921,""x"":759,""y"":235,""analysisTime"":38},{""startTime"":1689888259970,""x"":704,""y"":231,""analysisTime"":38},{""startTime"":1689888260018,""x"":736,""y"":248,""analysisTime"":26},{""startTime"":1689888260054,""x"":736,""y"":248,""analysisTime"":22},{""startTime"":1689888260092,""x"":794,""y"":277,""analysisTime"":40},{""startTime"":1689888260142,""x"":852,""y"":323,""analysisTime"":38},{""startTime"":1689888260191,""x"":710,""y"":313,""analysisTime"":37},{""startTime"":1689888260239,""x"":862,""y"":301,""analysisTime"":38},{""startTime"":1689888260287,""x"":487,""y"":269,""analysisTime"":38},{""startTime"":1689888260335,""x"":471,""y"":822,""analysisTime"":42},{""startTime"":1689888260414,""x"":583,""y"":885,""analysisTime"":31},{""startTime"":1689888260455,""x"":701,""y"":616,""analysisTime"":38},{""startTime"":1689888260503,""x"":891,""y"":298,""analysisTime"":39},{""startTime"":1689888260552,""x"":782,""y"":277,""analysisTime"":38},{""startTime"":1689888260601,""x"":539,""y"":384,""analysisTime"":37},{""startTime"":1689888260649,""x"":635,""y"":417,""analysisTime"":25},{""startTime"":1689888260690,""x"":697,""y"":290,""analysisTime"":39},{""startTime"":1689888260739,""x"":783,""y"":285,""analysisTime"":38},{""startTime"":1689888260787,""x"":794,""y"":308,""analysisTime"":38},{""startTime"":1689888260836,""x"":702,""y"":305,""analysisTime"":38},{""startTime"":1689888260885,""x"":787,""y"":238,""analysisTime"":26},{""startTime"":1689888260924,""x"":974,""y"":223,""analysisTime"":39},{""startTime"":1689888260974,""x"":972,""y"":256,""analysisTime"":38},{""startTime"":1689888261023,""x"":797,""y"":225,""analysisTime"":38},{""startTime"":1689888261072,""x"":782,""y"":218,""analysisTime"":38},{""startTime"":1689888261120,""x"":844,""y"":212,""analysisTime"":38},{""startTime"":1689888261168,""x"":982,""y"":227,""analysisTime"":26},{""startTime"":1689888261207,""x"":713,""y"":239,""analysisTime"":39},{""startTime"":1689888261256,""x"":773,""y"":275,""analysisTime"":26},{""startTime"":1689888261293,""x"":755,""y"":261,""analysisTime"":33},{""startTime"":1689888261336,""x"":764,""y"":234,""analysisTime"":39},{""startTime"":1689888261385,""x"":891,""y"":240,""analysisTime"":26},{""startTime"":1689888261422,""x"":866,""y"":205,""analysisTime"":22},{""startTime"":1689888261455,""x"":818,""y"":225,""analysisTime"":21},{""startTime"":1689888261491,""x"":700,""y"":263,""analysisTime"":40},{""startTime"":1689888261542,""x"":698,""y"":243,""analysisTime"":38},{""startTime"":1689888261590,""x"":649,""y"":242,""analysisTime"":39},{""startTime"":1689888261640,""x"":676,""y"":234,""analysisTime"":37},{""startTime"":1689888261687,""x"":701,""y"":265,""analysisTime"":38},{""startTime"":1689888261735,""x"":752,""y"":345,""analysisTime"":39},{""startTime"":1689888261784,""x"":718,""y"":292,""analysisTime"":26},{""startTime"":1689888261825,""x"":796,""y"":298,""analysisTime"":39},{""startTime"":1689888261874,""x"":768,""y"":302,""analysisTime"":38},{""startTime"":1689888261922,""x"":874,""y"":290,""analysisTime"":38},{""startTime"":1689888261971,""x"":945,""y"":239,""analysisTime"":38},{""startTime"":1689888262019,""x"":959,""y"":258,""analysisTime"":39},{""startTime"":1689888262068,""x"":972,""y"":291,""analysisTime"":38},{""startTime"":1689888262117,""x"":972,""y"":257,""analysisTime"":26},{""startTime"":1689888262156,""x"":857,""y"":292,""analysisTime"":38},{""startTime"":1689888262205,""x"":999,""y"":250,""analysisTime"":25},{""startTime"":1689888262241,""x"":804,""y"":259,""analysisTime"":34},{""startTime"":1689888262285,""x"":755,""y"":417,""analysisTime"":38},{""startTime"":1689888262333,""x"":883,""y"":284,""analysisTime"":27},{""startTime"":1689888262375,""x"":720,""y"":323,""analysisTime"":40},{""startTime"":1689888262425,""x"":637,""y"":383,""analysisTime"":39},{""startTime"":1689888262475,""x"":785,""y"":288,""analysisTime"":37},{""startTime"":1689888262523,""x"":541,""y"":464,""analysisTime"":38},{""startTime"":1689888262571,""x"":746,""y"":320,""analysisTime"":60},{""startTime"":1689888262642,""x"":767,""y"":306,""analysisTime"":40},{""startTime"":1689888262693,""x"":800,""y"":329,""analysisTime"":40},{""startTime"":1689888262744,""x"":746,""y"":289,""analysisTime"":38},{""startTime"":1689888262792,""x"":701,""y"":341,""analysisTime"":38},{""startTime"":1689888262842,""x"":827,""y"":284,""analysisTime"":30},{""startTime"":1689888262882,""x"":803,""y"":323,""analysisTime"":27},{""startTime"":1689888262924,""x"":643,""y"":397,""analysisTime"":39},{""startTime"":1689888262974,""x"":639,""y"":403,""analysisTime"":38},{""startTime"":1689888263022,""x"":682,""y"":368,""analysisTime"":39},{""startTime"":1689888263072,""x"":579,""y"":393,""analysisTime"":38},{""startTime"":1689888263120,""x"":828,""y"":309,""analysisTime"":38},{""startTime"":1689888263168,""x"":828,""y"":332,""analysisTime"":27}]","6448","","","","","","","","","","","","","","","","","","","","","","","","","","","","","","","","","","","","","","","","","","","","","","",""
"Single-Dot-Duration","21","62740","0.0-6.0-1.7","","","","","","","","","","","","","","","","","","","","","","","","1440","900","[{""startTime"":0,""x"":812,""y"":335,""analysisTime"":30},{""startTime"":40,""x"":877,""y"":294,""analysisTime"":26},{""startTime"":77,""x"":757,""y"":310,""analysisTime"":21},{""startTime"":113,""x"":824,""y"":332,""analysisTime"":39},{""startTime"":163,""x"":725,""y"":307,""analysisTime"":38},{""startTime"":212,""x"":813,""y"":279,""analysisTime"":38},{""startTime"":260,""x"":770,""y"":327,""analysisTime"":39},{""startTime"":310,""x"":830,""y"":322,""analysisTime"":37},{""startTime"":358,""x"":775,""y"":313,""analysisTime"":25},{""startTime"":396,""x"":745,""y"":307,""analysisTime"":39},{""startTime"":446,""x"":792,""y"":343,""analysisTime"":37},{""startTime"":494,""x"":759,""y"":301,""analysisTime"":38},{""startTime"":542,""x"":709,""y"":335,""analysisTime"":39},{""startTime"":591,""x"":771,""y"":317,""analysisTime"":39},{""startTime"":641,""x"":771,""y"":317,""analysisTime"":24},{""startTime"":680,""x"":752,""y"":315,""analysisTime"":39},{""startTime"":729,""x"":752,""y"":261,""analysisTime"":39},{""startTime"":779,""x"":765,""y"":291,""analysisTime"":37},{""startTime"":827,""x"":881,""y"":448,""analysisTime"":38},{""startTime"":876,""x"":811,""y"":648,""analysisTime"":25},{""startTime"":912,""x"":1195,""y"":591,""analysisTime"":34},{""startTime"":957,""x"":1019,""y"":599,""analysisTime"":37},{""startTime"":1004,""x"":944,""y"":602,""analysisTime"":26},{""startTime"":1047,""x"":633,""y"":743,""analysisTime"":39},{""startTime"":1096,""x"":724,""y"":696,""analysisTime"":39},{""startTime"":1146,""x"":724,""y"":696,""analysisTime"":25},{""startTime"":1183,""x"":665,""y"":667,""analysisTime"":34},{""startTime"":1228,""x"":623,""y"":683,""analysisTime"":38},{""startTime"":1277,""x"":496,""y"":669,""analysisTime"":38},{""startTime"":1325,""x"":440,""y"":705,""analysisTime"":39},{""startTime"":1374,""x"":492,""y"":651,""analysisTime"":27},{""startTime"":1413,""x"":571,""y"":692,""analysisTime"":39},{""startTime"":1462,""x"":1089,""y"":658,""analysisTime"":39},{""startTime"":1512,""x"":528,""y"":674,""analysisTime"":41}]","841.5","791.5","1199","1249","false","5","","","","","","","","","","","","","","","","","","","","","","","","","","","","","","","","","","","","","",""
"html-keyboard-response","22","64648","0.0-7.0","","","","","","","","","","","","","","","","","1907","SINGLE-DOT-DURATION trials are completed. <p>The next block will contain 5 DOUBLE-IMAGE-GAZE trials. This is the only trial types in which a gaze response is necessary to complete the trial.</p><p>To finish a trial, please gaze at one of the stimuli for 1000ms straight.</p>  Press [space] to continue"," ","","","","","","","","","","","","","","","","","","","","","","","","","","","","","","","","","","","","","","","","","","","","","","","","","","",""
"Double-Image-Gaze","23","67386","0.0-8.0-0.0","","","","","","","","","","","","","","","","","","","","","","","","1440","900","","","","","","","","2737","[{""startTime"":0,""x"":769,""y"":95,""analysisTime"":42},{""startTime"":52,""x"":693,""y"":59,""analysisTime"":39},{""startTime"":101,""x"":641,""y"":105,""analysisTime"":39},{""startTime"":150,""x"":982,""y"":157,""analysisTime"":39},{""startTime"":199,""x"":930,""y"":145,""analysisTime"":38},{""startTime"":249,""x"":696,""y"":153,""analysisTime"":37},{""startTime"":296,""x"":503,""y"":283,""analysisTime"":38},{""startTime"":345,""x"":340,""y"":43,""analysisTime"":25},{""startTime"":384,""x"":620,""y"":-5,""analysisTime"":39},{""startTime"":434,""x"":878,""y"":198,""analysisTime"":38},{""startTime"":482,""x"":793,""y"":171,""analysisTime"":39},{""startTime"":532,""x"":765,""y"":161,""analysisTime"":38},{""startTime"":580,""x"":753,""y"":212,""analysisTime"":39},{""startTime"":630,""x"":927,""y"":180,""analysisTime"":39},{""startTime"":679,""x"":853,""y"":160,""analysisTime"":39},{""startTime"":728,""x"":577,""y"":204,""analysisTime"":26},{""startTime"":767,""x"":624,""y"":252,""analysisTime"":38},{""startTime"":815,""x"":736,""y"":306,""analysisTime"":39},{""startTime"":864,""x"":767,""y"":195,""analysisTime"":39},{""startTime"":913,""x"":776,""y"":301,""analysisTime"":39},{""startTime"":962,""x"":774,""y"":293,""analysisTime"":26},{""startTime"":1001,""x"":654,""y"":263,""analysisTime"":73},{""startTime"":1085,""x"":713,""y"":224,""analysisTime"":42},{""startTime"":1137,""x"":880,""y"":208,""analysisTime"":27},{""startTime"":1175,""x"":846,""y"":193,""analysisTime"":34},{""startTime"":1220,""x"":835,""y"":235,""analysisTime"":36},{""startTime"":1266,""x"":585,""y"":221,""analysisTime"":38},{""startTime"":1314,""x"":553,""y"":237,""analysisTime"":24},{""startTime"":1349,""x"":714,""y"":247,""analysisTime"":32},{""startTime"":1391,""x"":641,""y"":248,""analysisTime"":25},{""startTime"":1427,""x"":874,""y"":199,""analysisTime"":29},{""startTime"":1466,""x"":640,""y"":314,""analysisTime"":25},{""startTime"":1502,""x"":693,""y"":302,""analysisTime"":33},{""startTime"":1546,""x"":817,""y"":304,""analysisTime"":39},{""startTime"":1595,""x"":736,""y"":314,""analysisTime"":27},{""startTime"":1635,""x"":881,""y"":302,""analysisTime"":25},{""startTime"":1671,""x"":744,""y"":340,""analysisTime"":34},{""startTime"":1715,""x"":749,""y"":280,""analysisTime"":38},{""startTime"":1763,""x"":767,""y"":196,""analysisTime"":39},{""startTime"":1813,""x"":944,""y"":192,""analysisTime"":39},{""startTime"":1862,""x"":753,""y"":191,""analysisTime"":39},{""startTime"":1911,""x"":752,""y"":207,""analysisTime"":39},{""startTime"":1960,""x"":784,""y"":228,""analysisTime"":25},{""startTime"":2002,""x"":796,""y"":176,""analysisTime"":38},{""startTime"":2051,""x"":853,""y"":185,""analysisTime"":38},{""startTime"":2099,""x"":761,""y"":242,""analysisTime"":39},{""startTime"":2148,""x"":853,""y"":269,""analysisTime"":38},{""startTime"":2196,""x"":903,""y"":279,""analysisTime"":26},{""startTime"":2233,""x"":839,""y"":235,""analysisTime"":39},{""startTime"":2282,""x"":897,""y"":203,""analysisTime"":39},{""startTime"":2331,""x"":829,""y"":280,""analysisTime"":38},{""startTime"":2380,""x"":865,""y"":205,""analysisTime"":38},{""startTime"":2429,""x"":933,""y"":187,""analysisTime"":38},{""startTime"":2478,""x"":934,""y"":204,""analysisTime"":25},{""startTime"":2518,""x"":928,""y"":218,""analysisTime"":40},{""startTime"":2569,""x"":941,""y"":223,""analysisTime"":39},{""startTime"":2618,""x"":912,""y"":263,""analysisTime"":38},{""startTime"":2666,""x"":893,""y"":241,""analysisTime"":26},{""startTime"":2703,""x"":824,""y"":254,""analysisTime"":34}]","./img/birds/bird9.jpeg","./img/birds/bird10.jpeg","{""x"":255,""y"":317.5,""width"":450,""height"":318,""top"":317.5,""right"":705,""bottom"":635.5,""left"":255}","{""x"":705,""y"":317.5,""width"":480,""height"":318,""top"":317.5,""right"":1185,""bottom"":635.5,""left"":705}","right","","","","","","","","","","","","","","","","","","","","","","","","","","","","","","",""
"Double-Image-Gaze","24","68684","0.0-8.0-0.1","","","","","","","","","","","","","","","","","","","","","","","","1440","900","","","","","","","","1296","[{""startTime"":0,""x"":824,""y"":254,""analysisTime"":21},{""startTime"":32,""x"":829,""y"":279,""analysisTime"":21},{""startTime"":65,""x"":815,""y"":251,""analysisTime"":34},{""startTime"":109,""x"":902,""y"":209,""analysisTime"":39},{""startTime"":159,""x"":755,""y"":198,""analysisTime"":38},{""startTime"":208,""x"":878,""y"":288,""analysisTime"":37},{""startTime"":256,""x"":944,""y"":327,""analysisTime"":26},{""startTime"":297,""x"":882,""y"":366,""analysisTime"":39},{""startTime"":347,""x"":917,""y"":301,""analysisTime"":37},{""startTime"":395,""x"":884,""y"":240,""analysisTime"":39},{""startTime"":444,""x"":1010,""y"":247,""analysisTime"":40},{""startTime"":521,""x"":871,""y"":249,""analysisTime"":31},{""startTime"":562,""x"":788,""y"":254,""analysisTime"":40},{""startTime"":612,""x"":694,""y"":256,""analysisTime"":32},{""startTime"":654,""x"":702,""y"":272,""analysisTime"":27},{""startTime"":696,""x"":669,""y"":276,""analysisTime"":41},{""startTime"":748,""x"":894,""y"":265,""analysisTime"":39},{""startTime"":797,""x"":795,""y"":216,""analysisTime"":39},{""startTime"":847,""x"":924,""y"":257,""analysisTime"":38},{""startTime"":896,""x"":862,""y"":279,""analysisTime"":39},{""startTime"":945,""x"":767,""y"":238,""analysisTime"":38},{""startTime"":994,""x"":792,""y"":290,""analysisTime"":38},{""startTime"":1043,""x"":773,""y"":286,""analysisTime"":38},{""startTime"":1091,""x"":702,""y"":277,""analysisTime"":26},{""startTime"":1128,""x"":685,""y"":276,""analysisTime"":21},{""startTime"":1161,""x"":690,""y"":299,""analysisTime"":38},{""startTime"":1210,""x"":928,""y"":305,""analysisTime"":38},{""startTime"":1259,""x"":728,""y"":307,""analysisTime"":37}]","./img/birds/bird5.jpeg","./img/birds/bird6.jpeg","{""x"":255,""y"":317.5,""width"":450,""height"":318,""top"":317.5,""right"":705,""bottom"":635.5,""left"":255}","{""x"":705,""y"":317.5,""width"":480,""height"":318,""top"":317.5,""right"":1185,""bottom"":635.5,""left"":705}","right","","","","","","","","","","","","","","","","","","","","","","","","","","","","","","",""
"Double-Image-Gaze","25","70505","0.0-8.0-0.2","","","","","","","","","","","","","","","","","","","","","","","","1440","900","","","","","","","","1821","[{""startTime"":0,""x"":813,""y"":203,""analysisTime"":34},{""startTime"":45,""x"":892,""y"":309,""analysisTime"":37},{""startTime"":93,""x"":790,""y"":208,""analysisTime"":38},{""startTime"":141,""x"":775,""y"":231,""analysisTime"":27},{""startTime"":179,""x"":1011,""y"":181,""analysisTime"":21},{""startTime"":211,""x"":933,""y"":157,""analysisTime"":22},{""startTime"":248,""x"":797,""y"":198,""analysisTime"":40},{""startTime"":298,""x"":881,""y"":205,""analysisTime"":38},{""startTime"":347,""x"":838,""y"":229,""analysisTime"":37},{""startTime"":395,""x"":878,""y"":249,""analysisTime"":38},{""startTime"":444,""x"":820,""y"":266,""analysisTime"":25},{""startTime"":483,""x"":966,""y"":214,""analysisTime"":38},{""startTime"":531,""x"":810,""y"":259,""analysisTime"":39},{""startTime"":581,""x"":836,""y"":240,""analysisTime"":37},{""startTime"":628,""x"":786,""y"":263,""analysisTime"":39},{""startTime"":679,""x"":815,""y"":267,""analysisTime"":37},{""startTime"":727,""x"":869,""y"":276,""analysisTime"":26},{""startTime"":765,""x"":861,""y"":572,""analysisTime"":39},{""startTime"":815,""x"":1021,""y"":504,""analysisTime"":38},{""startTime"":864,""x"":832,""y"":346,""analysisTime"":38},{""startTime"":913,""x"":824,""y"":345,""analysisTime"":38},{""startTime"":962,""x"":849,""y"":352,""analysisTime"":25},{""startTime"":998,""x"":863,""y"":294,""analysisTime"":39},{""startTime"":1047,""x"":845,""y"":321,""analysisTime"":39},{""startTime"":1096,""x"":875,""y"":377,""analysisTime"":39},{""startTime"":1146,""x"":986,""y"":331,""analysisTime"":37},{""startTime"":1193,""x"":1052,""y"":359,""analysisTime"":39},{""startTime"":1242,""x"":1043,""y"":361,""analysisTime"":26},{""startTime"":1283,""x"":1043,""y"":392,""analysisTime"":39},{""startTime"":1332,""x"":909,""y"":276,""analysisTime"":39},{""startTime"":1381,""x"":894,""y"":310,""analysisTime"":42},{""startTime"":1461,""x"":731,""y"":308,""analysisTime"":32},{""startTime"":1503,""x"":896,""y"":318,""analysisTime"":27},{""startTime"":1543,""x"":904,""y"":283,""analysisTime"":32},{""startTime"":1587,""x"":856,""y"":303,""analysisTime"":39},{""startTime"":1636,""x"":977,""y"":282,""analysisTime"":38},{""startTime"":1685,""x"":924,""y"":218,""analysisTime"":38},{""startTime"":1734,""x"":927,""y"":225,""analysisTime"":38},{""startTime"":1782,""x"":890,""y"":358,""analysisTime"":39}]","./img/birds/bird1.jpeg","./img/birds/bird2.jpeg","{""x"":255,""y"":317.5,""width"":450,""height"":318,""top"":317.5,""right"":705,""bottom"":635.5,""left"":255}","{""x"":705,""y"":317.5,""width"":480,""height"":318,""top"":317.5,""right"":1185,""bottom"":635.5,""left"":705}","right","","","","","","","","","","","","","","","","","","","","","","","","","","","","","","",""
"Double-Image-Gaze","26","74537","0.0-8.0-0.3","","","","","","","","","","","","","","","","","","","","","","","","1440","900","","","","","","","","4031","[{""startTime"":0,""x"":941,""y"":230,""analysisTime"":20},{""startTime"":32,""x"":871,""y"":271,""analysisTime"":34},{""startTime"":76,""x"":851,""y"":294,""analysisTime"":39},{""startTime"":125,""x"":775,""y"":279,""analysisTime"":39},{""startTime"":174,""x"":928,""y"":308,""analysisTime"":39},{""startTime"":223,""x"":928,""y"":308,""analysisTime"":25},{""startTime"":260,""x"":910,""y"":305,""analysisTime"":38},{""startTime"":314,""x"":777,""y"":253,""analysisTime"":40},{""startTime"":364,""x"":566,""y"":149,""analysisTime"":39},{""startTime"":413,""x"":471,""y"":48,""analysisTime"":39},{""startTime"":463,""x"":394,""y"":106,""analysisTime"":37},{""startTime"":510,""x"":502,""y"":128,""analysisTime"":26},{""startTime"":547,""x"":652,""y"":141,""analysisTime"":34},{""startTime"":591,""x"":785,""y"":163,""analysisTime"":39},{""startTime"":640,""x"":703,""y"":153,""analysisTime"":39},{""startTime"":689,""x"":703,""y"":153,""analysisTime"":26},{""startTime"":728,""x"":716,""y"":170,""analysisTime"":38},{""startTime"":777,""x"":751,""y"":119,""analysisTime"":39},{""startTime"":826,""x"":721,""y"":137,""analysisTime"":38},{""startTime"":875,""x"":799,""y"":173,""analysisTime"":38},{""startTime"":924,""x"":703,""y"":129,""analysisTime"":37},{""startTime"":971,""x"":707,""y"":153,""analysisTime"":39},{""startTime"":1021,""x"":707,""y"":153,""analysisTime"":24},{""startTime"":1060,""x"":705,""y"":137,""analysisTime"":40},{""startTime"":1111,""x"":559,""y"":155,""analysisTime"":25},{""startTime"":1148,""x"":668,""y"":157,""analysisTime"":34},{""startTime"":1192,""x"":634,""y"":158,""analysisTime"":38},{""startTime"":1240,""x"":517,""y"":87,""analysisTime"":39},{""startTime"":1289,""x"":737,""y"":59,""analysisTime"":26},{""startTime"":1326,""x"":579,""y"":51,""analysisTime"":39},{""startTime"":1375,""x"":544,""y"":101,""analysisTime"":39},{""startTime"":1425,""x"":663,""y"":90,""analysisTime"":37},{""startTime"":1472,""x"":488,""y"":102,""analysisTime"":38},{""startTime"":1521,""x"":530,""y"":106,""analysisTime"":36},{""startTime"":1568,""x"":623,""y"":198,""analysisTime"":26},{""startTime"":1611,""x"":518,""y"":198,""analysisTime"":39},{""startTime"":1660,""x"":508,""y"":168,""analysisTime"":39},{""startTime"":1709,""x"":499,""y"":208,""analysisTime"":39},{""startTime"":1759,""x"":560,""y"":169,""analysisTime"":42},{""startTime"":1838,""x"":538,""y"":188,""analysisTime"":30},{""startTime"":1879,""x"":679,""y"":203,""analysisTime"":37},{""startTime"":1927,""x"":562,""y"":82,""analysisTime"":37},{""startTime"":1974,""x"":545,""y"":67,""analysisTime"":38},{""startTime"":2022,""x"":660,""y"":87,""analysisTime"":38},{""startTime"":2070,""x"":517,""y"":78,""analysisTime"":38},{""startTime"":2119,""x"":571,""y"":175,""analysisTime"":26},{""startTime"":2160,""x"":552,""y"":207,""analysisTime"":38},{""startTime"":2208,""x"":541,""y"":46,""analysisTime"":38},{""startTime"":2256,""x"":571,""y"":150,""analysisTime"":37},{""startTime"":2309,""x"":631,""y"":70,""analysisTime"":38},{""startTime"":2358,""x"":647,""y"":85,""analysisTime"":37},{""startTime"":2408,""x"":556,""y"":77,""analysisTime"":37},{""startTime"":2455,""x"":417,""y"":98,""analysisTime"":38},{""startTime"":2504,""x"":490,""y"":136,""analysisTime"":37},{""startTime"":2552,""x"":429,""y"":123,""analysisTime"":25},{""startTime"":2593,""x"":389,""y"":144,""analysisTime"":39},{""startTime"":2643,""x"":458,""y"":129,""analysisTime"":38},{""startTime"":2692,""x"":406,""y"":130,""analysisTime"":37},{""startTime"":2739,""x"":588,""y"":139,""analysisTime"":38},{""startTime"":2788,""x"":588,""y"":139,""analysisTime"":24},{""startTime"":2823,""x"":565,""y"":608,""analysisTime"":20},{""startTime"":2854,""x"":735,""y"":449,""analysisTime"":33},{""startTime"":2898,""x"":425,""y"":716,""analysisTime"":37},{""startTime"":2945,""x"":650,""y"":642,""analysisTime"":25},{""startTime"":2982,""x"":664,""y"":381,""analysisTime"":33},{""startTime"":3025,""x"":654,""y"":294,""analysisTime"":37},{""startTime"":3073,""x"":524,""y"":286,""analysisTime"":37},{""startTime"":3121,""x"":524,""y"":286,""analysisTime"":24},{""startTime"":3161,""x"":451,""y"":286,""analysisTime"":38},{""startTime"":3209,""x"":529,""y"":96,""analysisTime"":38},{""startTime"":3258,""x"":424,""y"":248,""analysisTime"":37},{""startTime"":3305,""x"":504,""y"":97,""analysisTime"":26},{""startTime"":3343,""x"":641,""y"":125,""analysisTime"":38},{""startTime"":3395,""x"":516,""y"":140,""analysisTime"":37},{""startTime"":3443,""x"":666,""y"":113,""analysisTime"":38},{""startTime"":3493,""x"":703,""y"":149,""analysisTime"":36},{""startTime"":3541,""x"":566,""y"":92,""analysisTime"":31},{""startTime"":3582,""x"":474,""y"":91,""analysisTime"":28},{""startTime"":3627,""x"":466,""y"":123,""analysisTime"":39},{""startTime"":3677,""x"":597,""y"":61,""analysisTime"":27},{""startTime"":3715,""x"":528,""y"":79,""analysisTime"":34},{""startTime"":3760,""x"":488,""y"":90,""analysisTime"":36},{""startTime"":3811,""x"":488,""y"":80,""analysisTime"":37},{""startTime"":3858,""x"":582,""y"":95,""analysisTime"":36},{""startTime"":3904,""x"":503,""y"":84,""analysisTime"":25},{""startTime"":3939,""x"":615,""y"":74,""analysisTime"":27},{""startTime"":3984,""x"":554,""y"":110,""analysisTime"":47}]","./img/birds/bird7.jpeg","./img/birds/bird8.jpeg","{""x"":255,""y"":317.5,""width"":450,""height"":318,""top"":317.5,""right"":705,""bottom"":635.5,""left"":255}","{""x"":705,""y"":317.5,""width"":480,""height"":318,""top"":317.5,""right"":1185,""bottom"":635.5,""left"":705}","left","","","","","","","","","","","","","","","","","","","","","","","","","","","","","","",""
"Double-Image-Gaze","27","80870","0.0-8.0-0.4","","","","","","","","","","","","","","","","","","","","","","","","1440","900","","","","","","","","6332","[{""startTime"":0,""x"":540,""y"":139,""analysisTime"":31},{""startTime"":45,""x"":644,""y"":88,""analysisTime"":40},{""startTime"":95,""x"":632,""y"":87,""analysisTime"":39},{""startTime"":144,""x"":701,""y"":103,""analysisTime"":38},{""startTime"":193,""x"":621,""y"":104,""analysisTime"":38},{""startTime"":242,""x"":628,""y"":134,""analysisTime"":29},{""startTime"":282,""x"":588,""y"":89,""analysisTime"":31},{""startTime"":324,""x"":588,""y"":89,""analysisTime"":24},{""startTime"":359,""x"":613,""y"":76,""analysisTime"":20},{""startTime"":390,""x"":569,""y"":134,""analysisTime"":30},{""startTime"":430,""x"":652,""y"":124,""analysisTime"":38},{""startTime"":478,""x"":576,""y"":105,""analysisTime"":38},{""startTime"":527,""x"":635,""y"":141,""analysisTime"":36},{""startTime"":578,""x"":657,""y"":48,""analysisTime"":25},{""startTime"":615,""x"":588,""y"":89,""analysisTime"":20},{""startTime"":646,""x"":679,""y"":108,""analysisTime"":33},{""startTime"":689,""x"":679,""y"":108,""analysisTime"":25},{""startTime"":729,""x"":629,""y"":85,""analysisTime"":39},{""startTime"":778,""x"":735,""y"":84,""analysisTime"":38},{""startTime"":828,""x"":730,""y"":107,""analysisTime"":35},{""startTime"":879,""x"":624,""y"":100,""analysisTime"":37},{""startTime"":927,""x"":604,""y"":108,""analysisTime"":36},{""startTime"":974,""x"":587,""y"":122,""analysisTime"":36},{""startTime"":1020,""x"":594,""y"":137,""analysisTime"":24},{""startTime"":1054,""x"":771,""y"":158,""analysisTime"":29},{""startTime"":1093,""x"":768,""y"":129,""analysisTime"":25},{""startTime"":1130,""x"":726,""y"":153,""analysisTime"":32},{""startTime"":1177,""x"":644,""y"":151,""analysisTime"":37},{""startTime"":1225,""x"":635,""y"":143,""analysisTime"":36},{""startTime"":1272,""x"":592,""y"":178,""analysisTime"":24},{""startTime"":1306,""x"":626,""y"":175,""analysisTime"":21},{""startTime"":1339,""x"":667,""y"":143,""analysisTime"":29},{""startTime"":1379,""x"":630,""y"":85,""analysisTime"":36},{""startTime"":1425,""x"":617,""y"":134,""analysisTime"":36},{""startTime"":1472,""x"":604,""y"":131,""analysisTime"":24},{""startTime"":1512,""x"":538,""y"":159,""analysisTime"":39},{""startTime"":1562,""x"":456,""y"":179,""analysisTime"":37},{""startTime"":1609,""x"":408,""y"":199,""analysisTime"":38},{""startTime"":1658,""x"":628,""y"":237,""analysisTime"":38},{""startTime"":1707,""x"":654,""y"":167,""analysisTime"":37},{""startTime"":1755,""x"":654,""y"":167,""analysisTime"":24},{""startTime"":1795,""x"":503,""y"":181,""analysisTime"":38},{""startTime"":1843,""x"":545,""y"":137,""analysisTime"":37},{""startTime"":1891,""x"":545,""y"":137,""analysisTime"":23},{""startTime"":1925,""x"":693,""y"":160,""analysisTime"":21},{""startTime"":1956,""x"":673,""y"":143,""analysisTime"":29},{""startTime"":1995,""x"":696,""y"":130,""analysisTime"":38},{""startTime"":2044,""x"":661,""y"":107,""analysisTime"":43},{""startTime"":2110,""x"":668,""y"":162,""analysisTime"":46},{""startTime"":2167,""x"":528,""y"":151,""analysisTime"":34},{""startTime"":2211,""x"":532,""y"":168,""analysisTime"":38},{""startTime"":2264,""x"":536,""y"":163,""analysisTime"":37},{""startTime"":2311,""x"":549,""y"":152,""analysisTime"":37},{""startTime"":2358,""x"":539,""y"":180,""analysisTime"":37},{""startTime"":2405,""x"":502,""y"":125,""analysisTime"":25},{""startTime"":2446,""x"":553,""y"":148,""analysisTime"":37},{""startTime"":2493,""x"":669,""y"":93,""analysisTime"":37},{""startTime"":2541,""x"":641,""y"":113,""analysisTime"":37},{""startTime"":2589,""x"":551,""y"":143,""analysisTime"":23},{""startTime"":2630,""x"":472,""y"":90,""analysisTime"":38},{""startTime"":2678,""x"":460,""y"":97,""analysisTime"":37},{""startTime"":2725,""x"":506,""y"":91,""analysisTime"":38},{""startTime"":2773,""x"":516,""y"":104,""analysisTime"":38},{""startTime"":2821,""x"":516,""y"":104,""analysisTime"":25},{""startTime"":2861,""x"":624,""y"":158,""analysisTime"":38},{""startTime"":2910,""x"":610,""y"":175,""analysisTime"":37},{""startTime"":2958,""x"":542,""y"":155,""analysisTime"":37},{""startTime"":3006,""x"":731,""y"":118,""analysisTime"":26},{""startTime"":3046,""x"":747,""y"":153,""analysisTime"":38},{""startTime"":3095,""x"":746,""y"":152,""analysisTime"":44},{""startTime"":3150,""x"":652,""y"":181,""analysisTime"":38},{""startTime"":3198,""x"":669,""y"":165,""analysisTime"":37},{""startTime"":3246,""x"":760,""y"":170,""analysisTime"":37},{""startTime"":3293,""x"":724,""y"":123,""analysisTime"":38},{""startTime"":3341,""x"":649,""y"":128,""analysisTime"":37},{""startTime"":3388,""x"":527,""y"":150,""analysisTime"":38},{""startTime"":3436,""x"":542,""y"":186,""analysisTime"":25},{""startTime"":3477,""x"":672,""y"":218,""analysisTime"":40},{""startTime"":3528,""x"":591,""y"":163,""analysisTime"":39},{""startTime"":3577,""x"":680,""y"":188,""analysisTime"":39},{""startTime"":3627,""x"":652,""y"":184,""analysisTime"":37},{""startTime"":3674,""x"":547,""y"":192,""analysisTime"":39},{""startTime"":3724,""x"":562,""y"":160,""analysisTime"":38},{""startTime"":3772,""x"":675,""y"":200,""analysisTime"":38},{""startTime"":3821,""x"":675,""y"":200,""analysisTime"":25},{""startTime"":3861,""x"":730,""y"":144,""analysisTime"":40},{""startTime"":3911,""x"":611,""y"":172,""analysisTime"":39},{""startTime"":3961,""x"":668,""y"":71,""analysisTime"":37},{""startTime"":4008,""x"":792,""y"":100,""analysisTime"":39},{""startTime"":4057,""x"":741,""y"":184,""analysisTime"":38},{""startTime"":4106,""x"":714,""y"":136,""analysisTime"":38},{""startTime"":4154,""x"":714,""y"":136,""analysisTime"":25},{""startTime"":4196,""x"":762,""y"":178,""analysisTime"":39},{""startTime"":4247,""x"":692,""y"":165,""analysisTime"":31},{""startTime"":4298,""x"":795,""y"":142,""analysisTime"":50},{""startTime"":4360,""x"":690,""y"":132,""analysisTime"":22},{""startTime"":4396,""x"":756,""y"":114,""analysisTime"":41},{""startTime"":4447,""x"":796,""y"":127,""analysisTime"":40},{""startTime"":4498,""x"":692,""y"":160,""analysisTime"":38},{""startTime"":4546,""x"":707,""y"":148,""analysisTime"":39},{""startTime"":4596,""x"":757,""y"":152,""analysisTime"":37},{""startTime"":4644,""x"":730,""y"":152,""analysisTime"":38},{""startTime"":4693,""x"":541,""y"":101,""analysisTime"":37},{""startTime"":4740,""x"":761,""y"":162,""analysisTime"":39},{""startTime"":4790,""x"":713,""y"":161,""analysisTime"":37},{""startTime"":4837,""x"":733,""y"":137,""analysisTime"":26},{""startTime"":4879,""x"":721,""y"":115,""analysisTime"":40},{""startTime"":4929,""x"":809,""y"":161,""analysisTime"":39},{""startTime"":4978,""x"":767,""y"":141,""analysisTime"":26},{""startTime"":5015,""x"":336,""y"":844,""analysisTime"":34},{""startTime"":5060,""x"":200,""y"":818,""analysisTime"":39},{""startTime"":5109,""x"":440,""y"":798,""analysisTime"":39},{""startTime"":5159,""x"":542,""y"":632,""analysisTime"":37},{""startTime"":5206,""x"":598,""y"":594,""analysisTime"":26},{""startTime"":5243,""x"":816,""y"":478,""analysisTime"":21},{""startTime"":5276,""x"":634,""y"":356,""analysisTime"":39},{""startTime"":5326,""x"":642,""y"":424,""analysisTime"":38},{""startTime"":5374,""x"":688,""y"":549,""analysisTime"":39},{""startTime"":5424,""x"":436,""y"":480,""analysisTime"":36},{""startTime"":5471,""x"":700,""y"":494,""analysisTime"":24},{""startTime"":5513,""x"":561,""y"":404,""analysisTime"":42},{""startTime"":5566,""x"":661,""y"":402,""analysisTime"":26},{""startTime"":5603,""x"":621,""y"":332,""analysisTime"":34},{""startTime"":5647,""x"":676,""y"":96,""analysisTime"":39},{""startTime"":5697,""x"":558,""y"":127,""analysisTime"":38},{""startTime"":5745,""x"":758,""y"":135,""analysisTime"":26},{""startTime"":5782,""x"":436,""y"":221,""analysisTime"":35},{""startTime"":5828,""x"":561,""y"":157,""analysisTime"":37},{""startTime"":5875,""x"":685,""y"":209,""analysisTime"":39},{""startTime"":5925,""x"":865,""y"":157,""analysisTime"":37},{""startTime"":5972,""x"":878,""y"":216,""analysisTime"":39},{""startTime"":6022,""x"":878,""y"":216,""analysisTime"":25},{""startTime"":6063,""x"":770,""y"":150,""analysisTime"":39},{""startTime"":6112,""x"":822,""y"":121,""analysisTime"":39},{""startTime"":6163,""x"":697,""y"":191,""analysisTime"":30},{""startTime"":6204,""x"":750,""y"":123,""analysisTime"":25},{""startTime"":6245,""x"":789,""y"":131,""analysisTime"":38},{""startTime"":6293,""x"":796,""y"":145,""analysisTime"":39}]","./img/birds/bird3.jpeg","./img/birds/bird4.jpeg","{""x"":255,""y"":317.5,""width"":450,""height"":318,""top"":317.5,""right"":705,""bottom"":635.5,""left"":255}","{""x"":705,""y"":317.5,""width"":480,""height"":318,""top"":317.5,""right"":1185,""bottom"":635.5,""left"":705}","left","","","","","","","","","","","","","","","","","","","","","","","","","","","","","","",""
"html-keyboard-response","28","82019","0.0-9.0","","","","","","","","","","","","","","","","","1148","Active vision trials are completed. <p>The next set of trials will demonstrate the DOUBLE-IMAGE-KEY trial type.</p><p>To end a trial, you will need to provide a key response. Use the [f] or [j] keys to end a trial.</p> <p>To proceed to the trials, press the [space] key.</p>"," ","","","","","","","","","","","","","","","","","","","","","","","","","","","","","","","","","","","","","","","","","","","","","","","","","","",""
"Double-Image-Key","29","83060","0.0-10.0-0.0","","","","","","","","","","","","","","","","","","","","","","","","1440","900","","","","","","","","","","","","","","","[{""startTime"":1,""x"":839,""y"":175,""analysisTime"":22},{""startTime"":35,""x"":770,""y"":195,""analysisTime"":35},{""startTime"":80,""x"":870,""y"":192,""analysisTime"":38},{""startTime"":128,""x"":868,""y"":180,""analysisTime"":39},{""startTime"":178,""x"":859,""y"":172,""analysisTime"":37},{""startTime"":226,""x"":839,""y"":225,""analysisTime"":33},{""startTime"":270,""x"":511,""y"":238,""analysisTime"":37},{""startTime"":318,""x"":613,""y"":223,""analysisTime"":38},{""startTime"":366,""x"":607,""y"":123,""analysisTime"":39},{""startTime"":415,""x"":652,""y"":142,""analysisTime"":39},{""startTime"":464,""x"":492,""y"":461,""analysisTime"":39},{""startTime"":513,""x"":462,""y"":837,""analysisTime"":39},{""startTime"":563,""x"":859,""y"":849,""analysisTime"":38},{""startTime"":611,""x"":768,""y"":831,""analysisTime"":39},{""startTime"":661,""x"":753,""y"":796,""analysisTime"":38},{""startTime"":709,""x"":798,""y"":789,""analysisTime"":38},{""startTime"":757,""x"":796,""y"":801,""analysisTime"":26},{""startTime"":798,""x"":894,""y"":404,""analysisTime"":39},{""startTime"":848,""x"":1175,""y"":222,""analysisTime"":37},{""startTime"":895,""x"":1129,""y"":136,""analysisTime"":39},{""startTime"":945,""x"":1040,""y"":247,""analysisTime"":37},{""startTime"":992,""x"":966,""y"":235,""analysisTime"":39}]","./img/birds/bird7.jpeg","./img/birds/bird8.jpeg","{""LstimTop"":317.5,""LstimBot"":635.5,""LstimLeft"":240,""LstimRight"":720,""RstimTop"":317.5,""RstimBot"":635.5,""RstimLeft"":720,""RstimRight"":1200}","{""key"":""j"",""rt"":1040}","","","","","","","","","","","","","","","","","","","","","","","","","",""
"Double-Image-Key","30","83391","0.0-10.0-0.1","","","","","","","","","","","","","","","","","","","","","","","","1440","900","","","","","","","","","","","","","","","[{""startTime"":0,""x"":966,""y"":235,""analysisTime"":42},{""startTime"":5,""x"":966,""y"":235,""analysisTime"":37},{""startTime"":54,""x"":817,""y"":273,""analysisTime"":36},{""startTime"":57,""x"":919,""y"":222,""analysisTime"":33},{""startTime"":101,""x"":917,""y"":261,""analysisTime"":38},{""startTime"":105,""x"":917,""y"":261,""analysisTime"":34},{""startTime"":150,""x"":855,""y"":252,""analysisTime"":37},{""startTime"":154,""x"":855,""y"":252,""analysisTime"":33},{""startTime"":198,""x"":806,""y"":271,""analysisTime"":37},{""startTime"":202,""x"":939,""y"":297,""analysisTime"":33},{""startTime"":246,""x"":866,""y"":221,""analysisTime"":37},{""startTime"":250,""x"":866,""y"":221,""analysisTime"":33},{""startTime"":294,""x"":834,""y"":233,""analysisTime"":37},{""startTime"":298,""x"":834,""y"":233,""analysisTime"":33}]","./img/birds/bird1.jpeg","./img/birds/bird2.jpeg","{""LstimTop"":317.5,""LstimBot"":635.5,""LstimLeft"":240,""LstimRight"":720,""RstimTop"":317.5,""RstimBot"":635.5,""RstimLeft"":720,""RstimRight"":1200}","{""key"":""j"",""rt"":331}","","","","","","","","","","","","","","","","","","","","","","","","","",""
"Double-Image-Key","31","83799","0.0-10.0-0.2","","","","","","","","","","","","","","","","","","","","","","","","1440","900","","","","","","","","","","","","","","","[{""startTime"":0,""x"":820,""y"":267,""analysisTime"":54},{""startTime"":19,""x"":820,""y"":267,""analysisTime"":47},{""startTime"":23,""x"":820,""y"":257,""analysisTime"":43},{""startTime"":66,""x"":762,""y"":286,""analysisTime"":53},{""startTime"":86,""x"":762,""y"":286,""analysisTime"":45},{""startTime"":90,""x"":890,""y"":173,""analysisTime"":41},{""startTime"":138,""x"":957,""y"":230,""analysisTime"":58},{""startTime"":141,""x"":957,""y"":230,""analysisTime"":55},{""startTime"":145,""x"":957,""y"":230,""analysisTime"":51},{""startTime"":207,""x"":885,""y"":174,""analysisTime"":54},{""startTime"":211,""x"":885,""y"":174,""analysisTime"":50},{""startTime"":215,""x"":885,""y"":174,""analysisTime"":46},{""startTime"":276,""x"":1053,""y"":173,""analysisTime"":78},{""startTime"":280,""x"":1053,""y"":173,""analysisTime"":74},{""startTime"":284,""x"":1053,""y"":173,""analysisTime"":70}]","./img/birds/bird9.jpeg","./img/birds/bird10.jpeg","{""LstimTop"":317.5,""LstimBot"":635.5,""LstimLeft"":240,""LstimRight"":720,""RstimTop"":317.5,""RstimBot"":635.5,""RstimLeft"":720,""RstimRight"":1200}","{""key"":""j"",""rt"":407}","","","","","","","","","","","","","","","","","","","","","","","","","",""
"Double-Image-Key","32","84301","0.0-10.0-0.3","","","","","","","","","","","","","","","","","","","","","","","","1440","900","","","","","","","","","","","","","","","[{""startTime"":364,""x"":775,""y"":241,""analysisTime"":82},{""startTime"":368,""x"":775,""y"":241,""analysisTime"":78},{""startTime"":372,""x"":775,""y"":241,""analysisTime"":74},{""startTime"":0,""x"":775,""y"":241,""analysisTime"":46},{""startTime"":49,""x"":842,""y"":282,""analysisTime"":72},{""startTime"":53,""x"":891,""y"":185,""analysisTime"":68},{""startTime"":57,""x"":842,""y"":282,""analysisTime"":64},{""startTime"":61,""x"":891,""y"":185,""analysisTime"":68},{""startTime"":135,""x"":754,""y"":293,""analysisTime"":68},{""startTime"":139,""x"":754,""y"":293,""analysisTime"":64},{""startTime"":142,""x"":754,""y"":293,""analysisTime"":61},{""startTime"":180,""x"":695,""y"":240,""analysisTime"":40},{""startTime"":225,""x"":901,""y"":140,""analysisTime"":72},{""startTime"":229,""x"":745,""y"":252,""analysisTime"":68},{""startTime"":233,""x"":854,""y"":196,""analysisTime"":64},{""startTime"":267,""x"":901,""y"":140,""analysisTime"":38},{""startTime"":309,""x"":598,""y"":200,""analysisTime"":71},{""startTime"":314,""x"":598,""y"":200,""analysisTime"":66},{""startTime"":317,""x"":598,""y"":200,""analysisTime"":63},{""startTime"":351,""x"":554,""y"":160,""analysisTime"":37},{""startTime"":391,""x"":595,""y"":104,""analysisTime"":68},{""startTime"":395,""x"":595,""y"":104,""analysisTime"":64},{""startTime"":399,""x"":595,""y"":104,""analysisTime"":71},{""startTime"":433,""x"":651,""y"":55,""analysisTime"":37}]","./img/birds/bird3.jpeg","./img/birds/bird4.jpeg","{""LstimTop"":317.5,""LstimBot"":635.5,""LstimLeft"":240,""LstimRight"":720,""RstimTop"":317.5,""RstimBot"":635.5,""RstimLeft"":720,""RstimRight"":1200}","{""key"":""j"",""rt"":501}","","","","","","","","","","","","","","","","","","","","","","","","","",""
"Double-Image-Key","33","85111","0.0-10.0-0.4","","","","","","","","","","","","","","","","","","","","","","","","1440","900","","","","","","","","","","","","","","","[{""startTime"":470,""x"":586,""y"":128,""analysisTime"":58},{""startTime"":475,""x"":586,""y"":128,""analysisTime"":53},{""startTime"":0,""x"":689,""y"":167,""analysisTime"":56},{""startTime"":26,""x"":586,""y"":128,""analysisTime"":61},{""startTime"":30,""x"":689,""y"":167,""analysisTime"":57},{""startTime"":56,""x"":637,""y"":133,""analysisTime"":63},{""startTime"":60,""x"":775,""y"":159,""analysisTime"":59},{""startTime"":93,""x"":670,""y"":142,""analysisTime"":57},{""startTime"":119,""x"":718,""y"":98,""analysisTime"":61},{""startTime"":123,""x"":670,""y"":142,""analysisTime"":57},{""startTime"":150,""x"":733,""y"":94,""analysisTime"":62},{""startTime"":154,""x"":751,""y"":107,""analysisTime"":58},{""startTime"":186,""x"":747,""y"":154,""analysisTime"":57},{""startTime"":212,""x"":729,""y"":142,""analysisTime"":61},{""startTime"":216,""x"":729,""y"":142,""analysisTime"":57},{""startTime"":243,""x"":613,""y"":179,""analysisTime"":62},{""startTime"":247,""x"":613,""y"":179,""analysisTime"":58},{""startTime"":279,""x"":588,""y"":115,""analysisTime"":57},{""startTime"":306,""x"":588,""y"":115,""analysisTime"":61},{""startTime"":310,""x"":588,""y"":115,""analysisTime"":57},{""startTime"":336,""x"":1108,""y"":173,""analysisTime"":62},{""startTime"":340,""x"":1108,""y"":173,""analysisTime"":58},{""startTime"":373,""x"":1039,""y"":203,""analysisTime"":56},{""startTime"":399,""x"":1039,""y"":203,""analysisTime"":60},{""startTime"":403,""x"":1039,""y"":203,""analysisTime"":56},{""startTime"":429,""x"":919,""y"":225,""analysisTime"":62},{""startTime"":433,""x"":919,""y"":225,""analysisTime"":58},{""startTime"":465,""x"":919,""y"":225,""analysisTime"":57},{""startTime"":492,""x"":919,""y"":225,""analysisTime"":61},{""startTime"":496,""x"":919,""y"":225,""analysisTime"":57},{""startTime"":522,""x"":1017,""y"":220,""analysisTime"":63},{""startTime"":526,""x"":1017,""y"":220,""analysisTime"":59},{""startTime"":559,""x"":1017,""y"":220,""analysisTime"":57},{""startTime"":585,""x"":1017,""y"":220,""analysisTime"":62},{""startTime"":590,""x"":1017,""y"":220,""analysisTime"":57},{""startTime"":616,""x"":975,""y"":227,""analysisTime"":63},{""startTime"":621,""x"":975,""y"":227,""analysisTime"":58},{""startTime"":652,""x"":975,""y"":227,""analysisTime"":58},{""startTime"":679,""x"":975,""y"":227,""analysisTime"":61},{""startTime"":683,""x"":975,""y"":227,""analysisTime"":57},{""startTime"":710,""x"":981,""y"":248,""analysisTime"":62},{""startTime"":714,""x"":981,""y"":248,""analysisTime"":58},{""startTime"":746,""x"":981,""y"":248,""analysisTime"":56},{""startTime"":772,""x"":1052,""y"":183,""analysisTime"":76},{""startTime"":776,""x"":920,""y"":284,""analysisTime"":72},{""startTime"":803,""x"":1052,""y"":183,""analysisTime"":57},{""startTime"":807,""x"":1052,""y"":183,""analysisTime"":53}]","./img/birds/bird5.jpeg","./img/birds/bird6.jpeg","{""LstimTop"":317.5,""LstimBot"":635.5,""LstimLeft"":240,""LstimRight"":720,""RstimTop"":317.5,""RstimBot"":635.5,""RstimLeft"":720,""RstimRight"":1200}","{""key"":""j"",""rt"":810}","","","","","","","","","","","","","","","","","","","","","","","","","",""
"html-keyboard-response","34","85662","0.0-11.0","","","","","","","","","","","","","","","","","550","DOUBLE-VISION-KEY trials are completed. <p>The next set of trials will demonstrate the DOUBLE-IMAGE-DURATION trial type.</p><p>Trials will end after 1000ms. You do not need to provide a key or gaze response.</p> <p>To proceed to the trials, press the [space] key.</p>"," ","","","","","","","","","","","","","","","","","","","","","","","","","","","","","","","","","","","","","","","","","","","","","","","","","","",""
"Double-Image-Duration","35","86692","0.0-12.0-0.0","","","","","","","","","","","","","","","","","","","","","","","","1440","900","","","","","","","","","","","","","","","","","","","","[{""startTime"":0,""x"":969,""y"":168,""analysisTime"":39},{""startTime"":51,""x"":821,""y"":192,""analysisTime"":25},{""startTime"":88,""x"":753,""y"":254,""analysisTime"":35},{""startTime"":134,""x"":968,""y"":120,""analysisTime"":74},{""startTime"":220,""x"":781,""y"":122,""analysisTime"":40},{""startTime"":271,""x"":598,""y"":138,""analysisTime"":26},{""startTime"":308,""x"":656,""y"":139,""analysisTime"":35},{""startTime"":354,""x"":612,""y"":170,""analysisTime"":38},{""startTime"":406,""x"":627,""y"":201,""analysisTime"":39},{""startTime"":456,""x"":622,""y"":62,""analysisTime"":39},{""startTime"":506,""x"":663,""y"":176,""analysisTime"":27},{""startTime"":544,""x"":801,""y"":211,""analysisTime"":36},{""startTime"":591,""x"":818,""y"":156,""analysisTime"":27},{""startTime"":628,""x"":870,""y"":113,""analysisTime"":30},{""startTime"":669,""x"":887,""y"":166,""analysisTime"":39},{""startTime"":719,""x"":485,""y"":167,""analysisTime"":38},{""startTime"":767,""x"":682,""y"":128,""analysisTime"":39},{""startTime"":816,""x"":632,""y"":109,""analysisTime"":39},{""startTime"":865,""x"":560,""y"":124,""analysisTime"":38},{""startTime"":914,""x"":470,""y"":117,""analysisTime"":38},{""startTime"":963,""x"":470,""y"":117,""analysisTime"":25},{""startTime"":1003,""x"":505,""y"":104,""analysisTime"":26}]","./img/birds/bird1.jpeg","./img/birds/bird2.jpeg","635.5","255","705","317.5","635.5","705","1185","317.5","","","","","","","","","","","","","","",""
"Double-Image-Duration","36","87771","0.0-12.0-0.1","","","","","","","","","","","","","","","","","","","","","","","","1440","900","","","","","","","","","","","","","","","","","","","","[{""startTime"":0,""x"":569,""y"":55,""analysisTime"":30},{""startTime"":42,""x"":475,""y"":162,""analysisTime"":37},{""startTime"":89,""x"":517,""y"":131,""analysisTime"":26},{""startTime"":127,""x"":495,""y"":136,""analysisTime"":20},{""startTime"":158,""x"":653,""y"":49,""analysisTime"":21},{""startTime"":190,""x"":576,""y"":91,""analysisTime"":34},{""startTime"":234,""x"":497,""y"":113,""analysisTime"":39},{""startTime"":283,""x"":726,""y"":75,""analysisTime"":27},{""startTime"":321,""x"":650,""y"":247,""analysisTime"":21},{""startTime"":357,""x"":858,""y"":146,""analysisTime"":39},{""startTime"":406,""x"":600,""y"":131,""analysisTime"":26},{""startTime"":444,""x"":710,""y"":206,""analysisTime"":21},{""startTime"":477,""x"":648,""y"":178,""analysisTime"":33},{""startTime"":520,""x"":847,""y"":180,""analysisTime"":39},{""startTime"":569,""x"":847,""y"":180,""analysisTime"":26},{""startTime"":605,""x"":661,""y"":170,""analysisTime"":39},{""startTime"":655,""x"":629,""y"":183,""analysisTime"":26},{""startTime"":693,""x"":743,""y"":185,""analysisTime"":21},{""startTime"":725,""x"":834,""y"":118,""analysisTime"":34},{""startTime"":769,""x"":685,""y"":154,""analysisTime"":39},{""startTime"":819,""x"":635,""y"":192,""analysisTime"":38},{""startTime"":868,""x"":647,""y"":228,""analysisTime"":38},{""startTime"":916,""x"":522,""y"":191,""analysisTime"":27},{""startTime"":958,""x"":791,""y"":124,""analysisTime"":26},{""startTime"":995,""x"":743,""y"":176,""analysisTime"":34},{""startTime"":1040,""x"":688,""y"":143,""analysisTime"":38}]","./img/birds/bird9.jpeg","./img/birds/bird10.jpeg","635.5","255","705","317.5","635.5","705","1185","317.5","","","","","","","","","","","","","","",""
"Double-Image-Duration","37","88816","0.0-12.0-0.2","","","","","","","","","","","","","","","","","","","","","","","","1440","900","","","","","","","","","","","","","","","","","","","","[{""startTime"":0,""x"":688,""y"":143,""analysisTime"":21},{""startTime"":32,""x"":793,""y"":175,""analysisTime"":34},{""startTime"":77,""x"":779,""y"":159,""analysisTime"":26},{""startTime"":115,""x"":771,""y"":130,""analysisTime"":21},{""startTime"":148,""x"":751,""y"":162,""analysisTime"":34},{""startTime"":193,""x"":739,""y"":108,""analysisTime"":26},{""startTime"":230,""x"":593,""y"":174,""analysisTime"":39},{""startTime"":309,""x"":690,""y"":95,""analysisTime"":30},{""startTime"":350,""x"":812,""y"":137,""analysisTime"":25},{""startTime"":386,""x"":803,""y"":131,""analysisTime"":29},{""startTime"":426,""x"":786,""y"":162,""analysisTime"":37},{""startTime"":473,""x"":701,""y"":200,""analysisTime"":27},{""startTime"":512,""x"":656,""y"":227,""analysisTime"":33},{""startTime"":555,""x"":707,""y"":178,""analysisTime"":26},{""startTime"":595,""x"":682,""y"":205,""analysisTime"":39},{""startTime"":644,""x"":710,""y"":149,""analysisTime"":26},{""startTime"":681,""x"":776,""y"":185,""analysisTime"":34},{""startTime"":725,""x"":700,""y"":130,""analysisTime"":38},{""startTime"":773,""x"":555,""y"":691,""analysisTime"":26},{""startTime"":811,""x"":223,""y"":925,""analysisTime"":20},{""startTime"":845,""x"":188,""y"":854,""analysisTime"":26},{""startTime"":883,""x"":600,""y"":792,""analysisTime"":32},{""startTime"":926,""x"":580,""y"":435,""analysisTime"":38},{""startTime"":975,""x"":719,""y"":275,""analysisTime"":25},{""startTime"":1011,""x"":587,""y"":260,""analysisTime"":33}]","./img/birds/bird7.jpeg","./img/birds/bird8.jpeg","635.5","255","705","317.5","635.5","705","1185","317.5","","","","","","","","","","","","","","",""
"Double-Image-Duration","38","89872","0.0-12.0-0.3","","","","","","","","","","","","","","","","","","","","","","","","1440","900","","","","","","","","","","","","","","","","","","","","[{""startTime"":0,""x"":510,""y"":265,""analysisTime"":33},{""startTime"":43,""x"":423,""y"":193,""analysisTime"":26},{""startTime"":83,""x"":642,""y"":159,""analysisTime"":38},{""startTime"":131,""x"":564,""y"":131,""analysisTime"":39},{""startTime"":181,""x"":629,""y"":126,""analysisTime"":38},{""startTime"":230,""x"":772,""y"":126,""analysisTime"":39},{""startTime"":281,""x"":681,""y"":159,""analysisTime"":37},{""startTime"":329,""x"":660,""y"":691,""analysisTime"":38},{""startTime"":379,""x"":787,""y"":639,""analysisTime"":39},{""startTime"":429,""x"":1097,""y"":338,""analysisTime"":39},{""startTime"":479,""x"":1024,""y"":312,""analysisTime"":26},{""startTime"":516,""x"":1024,""y"":312,""analysisTime"":21},{""startTime"":550,""x"":1064,""y"":272,""analysisTime"":38},{""startTime"":599,""x"":1342,""y"":394,""analysisTime"":26},{""startTime"":636,""x"":497,""y"":656,""analysisTime"":34},{""startTime"":681,""x"":728,""y"":637,""analysisTime"":38},{""startTime"":730,""x"":1053,""y"":407,""analysisTime"":37},{""startTime"":777,""x"":1138,""y"":420,""analysisTime"":26},{""startTime"":817,""x"":1071,""y"":359,""analysisTime"":37},{""startTime"":865,""x"":1069,""y"":335,""analysisTime"":26},{""startTime"":902,""x"":1008,""y"":367,""analysisTime"":33},{""startTime"":945,""x"":1008,""y"":367,""analysisTime"":25},{""startTime"":982,""x"":858,""y"":345,""analysisTime"":21},{""startTime"":1016,""x"":896,""y"":312,""analysisTime"":39}]","./img/birds/bird3.jpeg","./img/birds/bird4.jpeg","635.5","255","705","317.5","635.5","705","1185","317.5","","","","","","","","","","","","","","",""
"Double-Image-Duration","39","90922","0.0-12.0-0.4","","","","","","","","","","","","","","","","","","","","","","","","1440","900","","","","","","","","","","","","","","","","","","","","[{""startTime"":0,""x"":1045,""y"":336,""analysisTime"":20},{""startTime"":31,""x"":1022,""y"":291,""analysisTime"":35},{""startTime"":76,""x"":970,""y"":264,""analysisTime"":26},{""startTime"":114,""x"":890,""y"":229,""analysisTime"":33},{""startTime"":157,""x"":1065,""y"":265,""analysisTime"":37},{""startTime"":205,""x"":989,""y"":243,""analysisTime"":26},{""startTime"":242,""x"":1007,""y"":301,""analysisTime"":21},{""startTime"":278,""x"":915,""y"":249,""analysisTime"":27},{""startTime"":316,""x"":1080,""y"":204,""analysisTime"":33},{""startTime"":360,""x"":920,""y"":235,""analysisTime"":38},{""startTime"":409,""x"":908,""y"":233,""analysisTime"":67},{""startTime"":488,""x"":848,""y"":232,""analysisTime"":23},{""startTime"":529,""x"":824,""y"":244,""analysisTime"":39},{""startTime"":579,""x"":846,""y"":228,""analysisTime"":39},{""startTime"":628,""x"":863,""y"":214,""analysisTime"":26},{""startTime"":666,""x"":876,""y"":257,""analysisTime"":21},{""startTime"":698,""x"":672,""y"":262,""analysisTime"":33},{""startTime"":741,""x"":977,""y"":218,""analysisTime"":38},{""startTime"":789,""x"":977,""y"":218,""analysisTime"":27},{""startTime"":828,""x"":871,""y"":281,""analysisTime"":37},{""startTime"":876,""x"":899,""y"":245,""analysisTime"":26},{""startTime"":913,""x"":898,""y"":254,""analysisTime"":21},{""startTime"":945,""x"":933,""y"":238,""analysisTime"":20},{""startTime"":977,""x"":817,""y"":242,""analysisTime"":21},{""startTime"":1011,""x"":874,""y"":241,""analysisTime"":39}]","./img/birds/bird5.jpeg","./img/birds/bird6.jpeg","635.5","255","705","317.5","635.5","705","1185","317.5","","","","","","","","","","","","","","",""
"html-keyboard-response","40","91960","0.0-13.0","","","","","","","","","","","","","","","","","1038","DOUBLE-VISION-DURATION trials are completed. <p>The next set of trials will demonstrate the <b>SINGLE</b>-IMAGE-KEY trial type.</p><p>To end a trial, you will need to provide a key response. Use the [spacebar] key to end a trial.</p> <p>To proceed to the trials, press the [space] key.</p>"," ","","","","","","","","","","","","","","","","","","","","","","","","","","","","","","","","","","","","","","","","","","","","","","","","","","",""
